acc1_x,acc1_y,acc1_z,gyro_x,gyro_y,gyro_z,acc2_x,acc2_y,acc2_z
7.0,-241.0,-65.0,56.0,10.0,-13.0,20.0,-985.0,-232.0
10.0,-243.0,-61.0,56.0,11.0,-11.0,18.0,-988.0,-239.0
9.0,-242.0,-65.0,55.0,12.0,-13.0,19.0,-982.0,-240.0
9.0,-239.0,-66.0,53.0,13.0,-13.0,18.0,-985.0,-237.0
11.0,-243.0,-60.0,51.0,12.0,-13.0,22.0,-981.0,-236.0
10.0,-238.0,-62.0,47.0,13.0,-12.0,21.0,-990.0,-235.0
9.0,-242.0,-62.0,44.0,13.0,-14.0,18.0,-984.0,-232.0
6.0,-240.0,-65.0,43.0,13.0,-13.0,15.0,-990.0,-226.0
8.0,-239.0,-60.0,42.0,11.0,-13.0,20.0,-990.0,-229.0
6.0,-241.0,-63.0,43.0,11.0,-15.0,17.0,-991.0,-229.0
6.0,-240.0,-59.0,45.0,9.0,-16.0,19.0,-994.0,-235.0
9.0,-240.0,-64.0,50.0,8.0,-14.0,18.0,-987.0,-244.0
4.0,-240.0,-63.0,56.0,8.0,-13.0,16.0,-989.0,-246.0
10.0,-243.0,-68.0,59.0,5.0,-13.0,16.0,-990.0,-244.0
7.0,-237.0,-65.0,62.0,4.0,-14.0,22.0,-982.0,-245.0
11.0,-240.0,-63.0,61.0,4.0,-13.0,19.0,-980.0,-242.0
6.0,-239.0,-64.0,59.0,4.0,-12.0,22.0,-979.0,-242.0
10.0,-239.0,-65.0,57.0,5.0,-13.0,23.0,-985.0,-238.0
8.0,-239.0,-60.0,54.0,5.0,-13.0,25.0,-989.0,-240.0
11.0,-239.0,-62.0,52.0,7.0,-12.0,24.0,-984.0,-239.0
11.0,-239.0,-62.0,49.0,7.0,-11.0,24.0,-989.0,-232.0
11.0,-240.0,-61.0,49.0,7.0,-12.0,23.0,-990.0,-234.0
12.0,-244.0,-64.0,49.0,8.0,-11.0,22.0,-990.0,-237.0
7.0,-241.0,-63.0,51.0,10.0,-10.0,24.0,-990.0,-232.0
12.0,-240.0,-63.0,53.0,10.0,-10.0,17.0,-991.0,-237.0
11.0,-241.0,-64.0,57.0,12.0,-10.0,19.0,-991.0,-234.0
9.0,-242.0,-70.0,61.0,13.0,-12.0,24.0,-984.0,-233.0
10.0,-242.0,-64.0,64.0,15.0,-11.0,17.0,-987.0,-234.0
7.0,-241.0,-62.0,65.0,15.0,-11.0,17.0,-988.0,-229.0
8.0,-241.0,-61.0,66.0,15.0,-12.0,19.0,-984.0,-230.0
9.0,-242.0,-61.0,67.0,16.0,-11.0,12.0,-986.0,-236.0
7.0,-242.0,-64.0,66.0,17.0,-11.0,19.0,-987.0,-235.0
7.0,-239.0,-64.0,65.0,17.0,-10.0,18.0,-990.0,-237.0
8.0,-242.0,-63.0,64.0,19.0,-11.0,21.0,-992.0,-235.0
12.0,-241.0,-62.0,60.0,19.0,-11.0,19.0,-988.0,-234.0
10.0,-241.0,-62.0,58.0,18.0,-12.0,18.0,-985.0,-241.0
8.0,-239.0,-62.0,55.0,18.0,-10.0,24.0,-988.0,-235.0
9.0,-243.0,-61.0,55.0,18.0,-10.0,23.0,-989.0,-233.0
8.0,-245.0,-63.0,52.0,17.0,-10.0,19.0,-986.0,-244.0
7.0,-241.0,-63.0,50.0,17.0,-10.0,21.0,-985.0,-242.0
9.0,-241.0,-64.0,51.0,16.0,-10.0,22.0,-982.0,-238.0
9.0,-244.0,-63.0,51.0,14.0,-10.0,20.0,-986.0,-236.0
9.0,-240.0,-62.0,51.0,14.0,-10.0,21.0,-991.0,-236.0
8.0,-241.0,-64.0,53.0,13.0,-10.0,20.0,-986.0,-238.0
10.0,-242.0,-63.0,55.0,13.0,-8.0,16.0,-987.0,-237.0
10.0,-242.0,-64.0,55.0,15.0,-9.0,19.0,-983.0,-239.0
9.0,-239.0,-64.0,58.0,13.0,-10.0,21.0,-986.0,-239.0
8.0,-242.0,-62.0,59.0,13.0,-10.0,15.0,-983.0,-240.0
6.0,-240.0,-64.0,59.0,14.0,-10.0,17.0,-991.0,-237.0
9.0,-243.0,-65.0,61.0,14.0,-10.0,22.0,-982.0,-239.0
7.0,-239.0,-62.0,63.0,16.0,-8.0,16.0,-989.0,-236.0
7.0,-240.0,-61.0,62.0,17.0,-9.0,16.0,-986.0,-239.0
8.0,-236.0,-63.0,61.0,17.0,-10.0,19.0,-986.0,-235.0
7.0,-236.0,-64.0,61.0,16.0,-9.0,17.0,-985.0,-236.0
10.0,-239.0,-63.0,61.0,17.0,-12.0,18.0,-986.0,-240.0
10.0,-240.0,-64.0,60.0,16.0,-12.0,23.0,-985.0,-237.0
8.0,-241.0,-64.0,60.0,14.0,-14.0,13.0,-980.0,-240.0
7.0,-242.0,-61.0,59.0,12.0,-12.0,17.0,-981.0,-242.0
7.0,-239.0,-63.0,59.0,11.0,-12.0,16.0,-979.0,-242.0
9.0,-244.0,-61.0,58.0,10.0,-13.0,17.0,-980.0,-239.0
9.0,-241.0,-64.0,57.0,10.0,-12.0,19.0,-980.0,-244.0
4.0,-238.0,-66.0,59.0,9.0,-13.0,18.0,-987.0,-239.0
7.0,-240.0,-58.0,58.0,10.0,-11.0,18.0,-984.0,-240.0
11.0,-242.0,-61.0,56.0,10.0,-12.0,21.0,-987.0,-236.0
7.0,-238.0,-65.0,55.0,8.0,-10.0,19.0,-984.0,-237.0
9.0,-238.0,-62.0,53.0,8.0,-12.0,19.0,-988.0,-243.0
8.0,-242.0,-64.0,51.0,8.0,-10.0,19.0,-989.0,-236.0
7.0,-240.0,-66.0,49.0,6.0,-12.0,20.0,-984.0,-234.0
9.0,-240.0,-58.0,49.0,6.0,-11.0,20.0,-991.0,-244.0
14.0,-245.0,-64.0,48.0,6.0,-10.0,20.0,-993.0,-242.0
5.0,-246.0,-67.0,50.0,6.0,-12.0,18.0,-991.0,-231.0
10.0,-243.0,-63.0,53.0,6.0,-12.0,13.0,-987.0,-236.0
6.0,-241.0,-63.0,55.0,8.0,-11.0,29.0,-994.0,-232.0
8.0,-242.0,-64.0,57.0,8.0,-11.0,16.0,-989.0,-239.0
10.0,-240.0,-62.0,58.0,9.0,-10.0,18.0,-987.0,-235.0
8.0,-240.0,-63.0,60.0,9.0,-11.0,19.0,-991.0,-235.0
9.0,-240.0,-62.0,61.0,9.0,-10.0,16.0,-990.0,-240.0
7.0,-238.0,-61.0,63.0,10.0,-10.0,19.0,-985.0,-238.0
9.0,-238.0,-63.0,65.0,10.0,-11.0,20.0,-988.0,-241.0
8.0,-240.0,-63.0,64.0,10.0,-11.0,20.0,-987.0,-237.0
7.0,-238.0,-62.0,64.0,11.0,-11.0,17.0,-985.0,-233.0
12.0,-236.0,-65.0,62.0,11.0,-12.0,19.0,-979.0,-232.0
8.0,-239.0,-64.0,62.0,12.0,-11.0,17.0,-986.0,-238.0
10.0,-240.0,-65.0,61.0,12.0,-12.0,22.0,-985.0,-238.0
9.0,-241.0,-63.0,60.0,11.0,-11.0,24.0,-981.0,-230.0
7.0,-239.0,-60.0,60.0,11.0,-11.0,19.0,-985.0,-231.0
11.0,-241.0,-62.0,58.0,12.0,-11.0,20.0,-984.0,-236.0
9.0,-239.0,-64.0,57.0,11.0,-12.0,16.0,-987.0,-237.0
8.0,-243.0,-60.0,57.0,10.0,-11.0,18.0,-980.0,-235.0
10.0,-240.0,-64.0,54.0,10.0,-10.0,19.0,-988.0,-233.0
9.0,-238.0,-61.0,54.0,11.0,-10.0,19.0,-991.0,-234.0
10.0,-242.0,-56.0,53.0,10.0,-10.0,19.0,-996.0,-230.0
17.0,-242.0,-62.0,55.0,11.0,-10.0,20.0,-990.0,-230.0
9.0,-239.0,-62.0,56.0,11.0,-10.0,22.0,-990.0,-240.0
9.0,-240.0,-63.0,58.0,11.0,-10.0,19.0,-992.0,-229.0
9.0,-241.0,-62.0,61.0,12.0,-9.0,19.0,-982.0,-238.0
6.0,-239.0,-66.0,62.0,14.0,-10.0,17.0,-989.0,-236.0
12.0,-240.0,-63.0,64.0,13.0,-12.0,17.0,-987.0,-244.0
9.0,-240.0,-61.0,64.0,12.0,-12.0,19.0,-980.0,-234.0
8.0,-240.0,-62.0,64.0,11.0,-11.0,19.0,-984.0,-234.0
6.0,-238.0,-62.0,62.0,10.0,-12.0,18.0,-987.0,-239.0
7.0,-240.0,-62.0,62.0,9.0,-11.0,18.0,-990.0,-236.0
9.0,-243.0,-62.0,61.0,9.0,-10.0,14.0,-983.0,-236.0
11.0,-243.0,-63.0,61.0,10.0,-11.0,8.0,-993.0,-234.0
4.0,-240.0,-66.0,60.0,10.0,-13.0,15.0,-985.0,-234.0
11.0,-242.0,-62.0,60.0,11.0,-14.0,18.0,-983.0,-236.0
7.0,-238.0,-62.0,60.0,10.0,-13.0,16.0,-986.0,-232.0
6.0,-238.0,-60.0,60.0,10.0,-12.0,16.0,-993.0,-236.0
6.0,-242.0,-63.0,60.0,11.0,-11.0,17.0,-986.0,-233.0
7.0,-242.0,-61.0,58.0,10.0,-12.0,16.0,-987.0,-240.0
10.0,-240.0,-63.0,60.0,10.0,-13.0,17.0,-986.0,-230.0
5.0,-238.0,-62.0,61.0,8.0,-12.0,14.0,-989.0,-237.0
6.0,-240.0,-65.0,61.0,7.0,-13.0,16.0,-992.0,-233.0
4.0,-246.0,-60.0,61.0,7.0,-12.0,12.0,-989.0,-226.0
9.0,-244.0,-60.0,63.0,8.0,-12.0,15.0,-992.0,-233.0
6.0,-240.0,-59.0,63.0,7.0,-12.0,16.0,-986.0,-235.0
6.0,-241.0,-64.0,65.0,6.0,-12.0,19.0,-993.0,-235.0
8.0,-242.0,-61.0,67.0,5.0,-12.0,16.0,-986.0,-231.0
10.0,-242.0,-63.0,69.0,6.0,-12.0,19.0,-989.0,-233.0
8.0,-239.0,-62.0,71.0,6.0,-11.0,16.0,-988.0,-234.0
11.0,-241.0,-64.0,72.0,5.0,-12.0,21.0,-985.0,-235.0
8.0,-239.0,-62.0,73.0,3.0,-12.0,17.0,-983.0,-232.0
8.0,-238.0,-61.0,74.0,5.0,-10.0,19.0,-985.0,-231.0
10.0,-238.0,-65.0,73.0,5.0,-12.0,12.0,-984.0,-235.0
8.0,-236.0,-60.0,73.0,6.0,-11.0,16.0,-976.0,-230.0
10.0,-240.0,-61.0,73.0,5.0,-11.0,15.0,-981.0,-231.0
8.0,-237.0,-60.0,73.0,6.0,-11.0,16.0,-977.0,-233.0
8.0,-238.0,-62.0,71.0,7.0,-13.0,16.0,-983.0,-229.0
5.0,-239.0,-64.0,68.0,8.0,-12.0,19.0,-988.0,-235.0
11.0,-239.0,-63.0,64.0,8.0,-14.0,16.0,-989.0,-235.0
10.0,-239.0,-65.0,61.0,9.0,-15.0,20.0,-986.0,-240.0
8.0,-241.0,-60.0,59.0,8.0,-15.0,19.0,-989.0,-238.0
7.0,-239.0,-61.0,56.0,8.0,-15.0,15.0,-991.0,-234.0
11.0,-240.0,-62.0,54.0,7.0,-16.0,19.0,-995.0,-230.0
10.0,-245.0,-60.0,55.0,7.0,-15.0,18.0,-997.0,-234.0
6.0,-243.0,-57.0,56.0,8.0,-14.0,23.0,-996.0,-234.0
7.0,-243.0,-61.0,59.0,8.0,-14.0,15.0,-993.0,-229.0
7.0,-246.0,-58.0,61.0,8.0,-15.0,14.0,-997.0,-230.0
7.0,-243.0,-58.0,62.0,7.0,-14.0,17.0,-999.0,-230.0
9.0,-245.0,-60.0,63.0,9.0,-14.0,15.0,-997.0,-235.0
9.0,-246.0,-62.0,63.0,9.0,-14.0,13.0,-1002.0,-235.0
7.0,-243.0,-61.0,64.0,8.0,-15.0,18.0,-1001.0,-227.0
11.0,-241.0,-59.0,65.0,7.0,-14.0,14.0,-998.0,-226.0
10.0,-245.0,-61.0,66.0,4.0,-14.0,8.0,-995.0,-219.0
6.0,-241.0,-61.0,70.0,2.0,-13.0,15.0,-993.0,-231.0
10.0,-241.0,-65.0,73.0,1.0,-13.0,14.0,-992.0,-231.0
7.0,-245.0,-63.0,79.0,-1.0,-12.0,15.0,-990.0,-231.0
8.0,-243.0,-62.0,82.0,-2.0,-12.0,15.0,-988.0,-242.0
5.0,-241.0,-65.0,84.0,-2.0,-11.0,13.0,-979.0,-239.0
9.0,-237.0,-62.0,84.0,-2.0,-12.0,11.0,-984.0,-238.0
7.0,-238.0,-62.0,82.0,-3.0,-12.0,17.0,-979.0,-244.0
7.0,-237.0,-63.0,77.0,-2.0,-13.0,16.0,-979.0,-244.0
10.0,-237.0,-61.0,74.0,-2.0,-15.0,19.0,-974.0,-235.0
6.0,-240.0,-60.0,67.0,-2.0,-15.0,18.0,-979.0,-235.0
9.0,-238.0,-66.0,64.0,0.0,-14.0,19.0,-983.0,-227.0
9.0,-239.0,-62.0,61.0,0.0,-13.0,20.0,-986.0,-231.0
10.0,-240.0,-57.0,60.0,0.0,-14.0,23.0,-985.0,-225.0
7.0,-246.0,-60.0,59.0,2.0,-13.0,21.0,-989.0,-229.0
7.0,-241.0,-62.0,60.0,3.0,-12.0,19.0,-987.0,-228.0
9.0,-240.0,-65.0,63.0,5.0,-13.0,24.0,-990.0,-232.0
10.0,-243.0,-61.0,63.0,6.0,-12.0,19.0,-991.0,-227.0
8.0,-242.0,-61.0,64.0,8.0,-11.0,16.0,-986.0,-230.0
7.0,-240.0,-60.0,64.0,8.0,-11.0,18.0,-991.0,-229.0
10.0,-243.0,-60.0,65.0,10.0,-11.0,19.0,-988.0,-232.0
5.0,-240.0,-62.0,64.0,11.0,-10.0,17.0,-987.0,-227.0
8.0,-241.0,-63.0,64.0,10.0,-12.0,17.0,-988.0,-226.0
11.0,-242.0,-67.0,62.0,10.0,-12.0,17.0,-991.0,-228.0
9.0,-238.0,-60.0,60.0,10.0,-12.0,19.0,-986.0,-236.0
7.0,-239.0,-58.0,58.0,10.0,-13.0,17.0,-992.0,-228.0
6.0,-239.0,-60.0,57.0,9.0,-14.0,21.0,-983.0,-223.0
8.0,-239.0,-65.0,55.0,9.0,-15.0,19.0,-989.0,-229.0
7.0,-242.0,-60.0,54.0,9.0,-15.0,16.0,-981.0,-226.0
10.0,-241.0,-59.0,53.0,9.0,-15.0,20.0,-992.0,-227.0
10.0,-243.0,-62.0,53.0,9.0,-13.0,22.0,-990.0,-228.0
10.0,-240.0,-58.0,54.0,9.0,-14.0,19.0,-988.0,-233.0
8.0,-240.0,-61.0,55.0,10.0,-14.0,19.0,-991.0,-232.0
8.0,-241.0,-62.0,56.0,9.0,-12.0,21.0,-990.0,-229.0
6.0,-241.0,-61.0,57.0,10.0,-12.0,19.0,-990.0,-236.0
5.0,-242.0,-59.0,58.0,9.0,-12.0,21.0,-990.0,-237.0
6.0,-239.0,-59.0,60.0,10.0,-12.0,15.0,-992.0,-242.0
8.0,-241.0,-61.0,61.0,8.0,-13.0,18.0,-991.0,-229.0
9.0,-241.0,-56.0,60.0,10.0,-11.0,17.0,-993.0,-232.0
8.0,-242.0,-59.0,59.0,10.0,-13.0,14.0,-992.0,-227.0
9.0,-240.0,-62.0,60.0,10.0,-12.0,12.0,-991.0,-225.0
7.0,-245.0,-62.0,60.0,10.0,-11.0,17.0,-996.0,-227.0
7.0,-240.0,-60.0,62.0,10.0,-12.0,17.0,-997.0,-232.0
8.0,-243.0,-61.0,62.0,11.0,-12.0,19.0,-998.0,-235.0
6.0,-241.0,-58.0,65.0,11.0,-11.0,15.0,-993.0,-226.0
6.0,-243.0,-61.0,68.0,11.0,-12.0,13.0,-988.0,-230.0
9.0,-244.0,-61.0,71.0,11.0,-13.0,13.0,-989.0,-227.0
11.0,-241.0,-58.0,73.0,10.0,-13.0,17.0,-989.0,-226.0
8.0,-238.0,-59.0,75.0,10.0,-15.0,19.0,-989.0,-230.0
9.0,-239.0,-62.0,73.0,10.0,-13.0,13.0,-987.0,-223.0
6.0,-236.0,-59.0,74.0,10.0,-12.0,15.0,-981.0,-227.0
8.0,-238.0,-59.0,71.0,9.0,-12.0,13.0,-984.0,-225.0
7.0,-238.0,-59.0,68.0,8.0,-13.0,14.0,-985.0,-228.0
8.0,-241.0,-61.0,64.0,6.0,-13.0,18.0,-979.0,-228.0
8.0,-237.0,-60.0,62.0,4.0,-13.0,17.0,-974.0,-232.0
8.0,-239.0,-63.0,57.0,3.0,-13.0,19.0,-979.0,-228.0
10.0,-241.0,-60.0,52.0,3.0,-12.0,20.0,-982.0,-232.0
9.0,-242.0,-62.0,49.0,3.0,-11.0,16.0,-983.0,-229.0
6.0,-244.0,-64.0,46.0,3.0,-12.0,19.0,-981.0,-228.0
6.0,-238.0,-63.0,42.0,2.0,-13.0,14.0,-986.0,-228.0
9.0,-243.0,-61.0,41.0,1.0,-13.0,15.0,-988.0,-231.0
7.0,-241.0,-60.0,39.0,2.0,-12.0,17.0,-992.0,-233.0
10.0,-242.0,-63.0,39.0,2.0,-12.0,16.0,-994.0,-229.0
11.0,-242.0,-61.0,41.0,2.0,-12.0,20.0,-991.0,-227.0
8.0,-240.0,-60.0,40.0,2.0,-11.0,19.0,-994.0,-228.0
8.0,-244.0,-61.0,43.0,4.0,-12.0,17.0,-992.0,-233.0
9.0,-242.0,-63.0,47.0,4.0,-12.0,19.0,-996.0,-228.0
8.0,-243.0,-60.0,50.0,4.0,-12.0,18.0,-995.0,-228.0
8.0,-243.0,-64.0,53.0,4.0,-12.0,17.0,-998.0,-226.0
7.0,-241.0,-63.0,56.0,6.0,-12.0,14.0,-1001.0,-230.0
9.0,-244.0,-61.0,59.0,7.0,-12.0,17.0,-991.0,-230.0
10.0,-243.0,-63.0,62.0,7.0,-13.0,18.0,-995.0,-226.0
8.0,-243.0,-64.0,62.0,9.0,-13.0,17.0,-995.0,-226.0
10.0,-244.0,-61.0,64.0,9.0,-11.0,22.0,-991.0,-231.0
7.0,-242.0,-61.0,63.0,10.0,-12.0,21.0,-987.0,-234.0
12.0,-239.0,-57.0,61.0,8.0,-13.0,19.0,-992.0,-231.0
11.0,-238.0,-59.0,60.0,9.0,-13.0,20.0,-991.0,-231.0
10.0,-240.0,-61.0,60.0,10.0,-11.0,19.0,-987.0,-231.0
9.0,-238.0,-55.0,58.0,12.0,-11.0,22.0,-988.0,-229.0
5.0,-235.0,-60.0,59.0,12.0,-11.0,18.0,-983.0,-229.0
9.0,-240.0,-62.0,57.0,11.0,-11.0,17.0,-990.0,-227.0
12.0,-239.0,-61.0,57.0,9.0,-11.0,19.0,-988.0,-225.0
11.0,-242.0,-60.0,56.0,10.0,-11.0,18.0,-991.0,-227.0
9.0,-242.0,-61.0,56.0,10.0,-11.0,21.0,-989.0,-230.0
9.0,-241.0,-60.0,56.0,9.0,-11.0,20.0,-985.0,-226.0
8.0,-241.0,-61.0,57.0,10.0,-11.0,19.0,-987.0,-231.0
10.0,-239.0,-61.0,58.0,9.0,-12.0,20.0,-990.0,-230.0
6.0,-240.0,-55.0,59.0,9.0,-14.0,24.0,-990.0,-230.0
9.0,-241.0,-61.0,58.0,11.0,-12.0,19.0,-987.0,-228.0
6.0,-239.0,-59.0,57.0,8.0,-12.0,19.0,-988.0,-224.0
11.0,-244.0,-65.0,57.0,9.0,-13.0,16.0,-988.0,-226.0
7.0,-241.0,-58.0,56.0,8.0,-13.0,19.0,-991.0,-231.0
8.0,-241.0,-61.0,57.0,9.0,-11.0,21.0,-995.0,-225.0
10.0,-239.0,-59.0,56.0,8.0,-11.0,24.0,-986.0,-230.0
9.0,-240.0,-59.0,55.0,11.0,-12.0,19.0,-990.0,-230.0
8.0,-241.0,-61.0,55.0,10.0,-13.0,20.0,-988.0,-226.0
11.0,-242.0,-63.0,55.0,11.0,-12.0,18.0,-989.0,-221.0
8.0,-240.0,-57.0,55.0,12.0,-12.0,16.0,-986.0,-224.0
11.0,-243.0,-60.0,55.0,12.0,-13.0,20.0,-992.0,-221.0
7.0,-240.0,-59.0,55.0,13.0,-13.0,20.0,-990.0,-220.0
7.0,-242.0,-60.0,55.0,13.0,-12.0,21.0,-989.0,-231.0
5.0,-239.0,-64.0,53.0,13.0,-12.0,16.0,-991.0,-232.0
7.0,-241.0,-62.0,51.0,14.0,-12.0,20.0,-985.0,-229.0
10.0,-240.0,-60.0,49.0,14.0,-12.0,18.0,-989.0,-227.0
8.0,-242.0,-62.0,48.0,14.0,-12.0,15.0,-992.0,-229.0
9.0,-241.0,-60.0,45.0,13.0,-11.0,21.0,-983.0,-226.0
10.0,-243.0,-64.0,46.0,14.0,-12.0,20.0,-991.0,-226.0
9.0,-242.0,-62.0,44.0,15.0,-11.0,18.0,-989.0,-228.0
10.0,-240.0,-62.0,43.0,15.0,-12.0,15.0,-987.0,-229.0
10.0,-240.0,-60.0,43.0,14.0,-10.0,19.0,-990.0,-228.0
10.0,-241.0,-63.0,44.0,17.0,-9.0,19.0,-989.0,-227.0
7.0,-238.0,-63.0,45.0,16.0,-9.0,20.0,-992.0,-233.0
8.0,-242.0,-60.0,45.0,16.0,-8.0,19.0,-989.0,-230.0
9.0,-239.0,-61.0,44.0,16.0,-10.0,22.0,-989.0,-230.0
8.0,-241.0,-59.0,45.0,16.0,-12.0,18.0,-991.0,-238.0
8.0,-241.0,-60.0,45.0,16.0,-10.0,18.0,-989.0,-231.0
9.0,-240.0,-63.0,44.0,16.0,-10.0,19.0,-995.0,-228.0
11.0,-244.0,-59.0,45.0,16.0,-10.0,18.0,-987.0,-230.0
8.0,-242.0,-60.0,46.0,15.0,-10.0,17.0,-985.0,-232.0
6.0,-244.0,-55.0,47.0,17.0,-12.0,15.0,-987.0,-232.0
11.0,-242.0,-63.0,48.0,16.0,-10.0,18.0,-987.0,-229.0
11.0,-246.0,-61.0,49.0,15.0,-10.0,17.0,-983.0,-228.0
8.0,-237.0,-61.0,49.0,15.0,-11.0,18.0,-985.0,-229.0
7.0,-242.0,-58.0,47.0,14.0,-12.0,21.0,-990.0,-230.0
10.0,-241.0,-63.0,47.0,14.0,-12.0,16.0,-981.0,-227.0
8.0,-242.0,-60.0,44.0,16.0,-11.0,19.0,-988.0,-228.0
8.0,-242.0,-63.0,43.0,15.0,-12.0,16.0,-988.0,-231.0
6.0,-240.0,-61.0,42.0,14.0,-10.0,19.0,-990.0,-234.0
10.0,-240.0,-64.0,42.0,12.0,-12.0,17.0,-989.0,-234.0
7.0,-243.0,-62.0,41.0,12.0,-13.0,15.0,-983.0,-230.0
7.0,-239.0,-61.0,42.0,10.0,-13.0,21.0,-990.0,-230.0
9.0,-240.0,-63.0,40.0,11.0,-12.0,18.0,-987.0,-230.0
9.0,-241.0,-60.0,41.0,12.0,-12.0,16.0,-987.0,-234.0
6.0,-241.0,-59.0,39.0,12.0,-12.0,17.0,-988.0,-234.0
11.0,-238.0,-59.0,37.0,10.0,-13.0,13.0,-991.0,-227.0
6.0,-239.0,-60.0,36.0,9.0,-14.0,16.0,-987.0,-226.0
8.0,-244.0,-59.0,33.0,8.0,-13.0,14.0,-995.0,-220.0
8.0,-242.0,-59.0,35.0,6.0,-13.0,15.0,-995.0,-228.0
6.0,-239.0,-62.0,38.0,4.0,-13.0,17.0,-990.0,-228.0
6.0,-239.0,-61.0,43.0,3.0,-12.0,19.0,-983.0,-234.0
9.0,-240.0,-66.0,49.0,3.0,-13.0,16.0,-985.0,-236.0
8.0,-239.0,-65.0,51.0,3.0,-14.0,18.0,-983.0,-241.0
9.0,-238.0,-60.0,52.0,3.0,-14.0,20.0,-982.0,-241.0
9.0,-237.0,-65.0,50.0,1.0,-15.0,17.0,-977.0,-237.0
10.0,-238.0,-62.0,46.0,2.0,-13.0,19.0,-978.0,-233.0
12.0,-242.0,-63.0,41.0,4.0,-13.0,22.0,-978.0,-230.0
8.0,-238.0,-61.0,38.0,4.0,-13.0,22.0,-978.0,-225.0
11.0,-238.0,-62.0,32.0,4.0,-12.0,18.0,-986.0,-223.0
11.0,-241.0,-59.0,29.0,3.0,-11.0,23.0,-990.0,-218.0
7.0,-242.0,-64.0,26.0,4.0,-12.0,22.0,-993.0,-229.0
11.0,-243.0,-57.0,28.0,5.0,-11.0,23.0,-994.0,-230.0
7.0,-243.0,-61.0,30.0,7.0,-11.0,22.0,-997.0,-235.0
6.0,-240.0,-65.0,32.0,6.0,-11.0,21.0,-992.0,-232.0
9.0,-243.0,-64.0,33.0,6.0,-10.0,18.0,-992.0,-239.0
10.0,-245.0,-58.0,37.0,8.0,-10.0,19.0,-994.0,-233.0
4.0,-242.0,-65.0,42.0,7.0,-10.0,19.0,-989.0,-239.0
3.0,-242.0,-59.0,45.0,10.0,-11.0,17.0,-990.0,-235.0
7.0,-243.0,-61.0,48.0,9.0,-12.0,16.0,-989.0,-231.0
7.0,-242.0,-61.0,52.0,8.0,-12.0,11.0,-989.0,-229.0
8.0,-239.0,-63.0,54.0,8.0,-14.0,17.0,-991.0,-233.0
7.0,-239.0,-58.0,56.0,9.0,-15.0,15.0,-992.0,-230.0
7.0,-239.0,-60.0,57.0,8.0,-14.0,17.0,-985.0,-229.0
8.0,-240.0,-61.0,58.0,7.0,-15.0,16.0,-991.0,-233.0
9.0,-242.0,-61.0,56.0,7.0,-14.0,18.0,-989.0,-233.0
8.0,-239.0,-62.0,53.0,6.0,-12.0,18.0,-978.0,-235.0
8.0,-240.0,-61.0,49.0,8.0,-10.0,20.0,-983.0,-238.0
10.0,-241.0,-63.0,45.0,5.0,-10.0,18.0,-984.0,-235.0
11.0,-236.0,-60.0,40.0,6.0,-12.0,24.0,-981.0,-235.0
10.0,-239.0,-62.0,38.0,7.0,-11.0,22.0,-985.0,-237.0
11.0,-239.0,-62.0,36.0,8.0,-10.0,19.0,-981.0,-237.0
9.0,-239.0,-60.0,34.0,9.0,-9.0,20.0,-984.0,-234.0
9.0,-237.0,-63.0,33.0,9.0,-8.0,24.0,-986.0,-230.0
8.0,-242.0,-61.0,33.0,9.0,-6.0,18.0,-984.0,-232.0
12.0,-239.0,-58.0,34.0,9.0,-5.0,21.0,-986.0,-230.0
10.0,-240.0,-62.0,34.0,8.0,-6.0,18.0,-985.0,-229.0
8.0,-240.0,-57.0,33.0,9.0,-6.0,17.0,-989.0,-226.0
9.0,-240.0,-63.0,33.0,11.0,-5.0,19.0,-989.0,-226.0
12.0,-242.0,-61.0,35.0,11.0,-5.0,18.0,-990.0,-225.0
8.0,-243.0,-59.0,35.0,12.0,-4.0,18.0,-996.0,-229.0
8.0,-240.0,-58.0,34.0,13.0,-7.0,18.0,-992.0,-221.0
11.0,-241.0,-62.0,36.0,13.0,-9.0,19.0,-995.0,-227.0
11.0,-241.0,-61.0,37.0,13.0,-10.0,21.0,-996.0,-229.0
7.0,-242.0,-62.0,39.0,13.0,-10.0,12.0,-991.0,-231.0
10.0,-241.0,-62.0,41.0,13.0,-9.0,16.0,-992.0,-229.0
6.0,-242.0,-59.0,43.0,11.0,-11.0,21.0,-990.0,-228.0
9.0,-245.0,-64.0,45.0,8.0,-11.0,16.0,-987.0,-241.0
7.0,-244.0,-62.0,45.0,8.0,-10.0,16.0,-988.0,-238.0
4.0,-239.0,-64.0,45.0,8.0,-10.0,12.0,-989.0,-230.0
2.0,-243.0,-61.0,44.0,4.0,-10.0,15.0,-989.0,-231.0
6.0,-239.0,-60.0,44.0,2.0,-9.0,16.0,-986.0,-234.0
6.0,-240.0,-60.0,44.0,1.0,-10.0,17.0,-987.0,-225.0
9.0,-244.0,-58.0,43.0,-1.0,-10.0,14.0,-987.0,-229.0
8.0,-240.0,-60.0,44.0,-1.0,-11.0,18.0,-986.0,-231.0
6.0,-240.0,-57.0,44.0,-2.0,-9.0,16.0,-991.0,-225.0
10.0,-243.0,-61.0,43.0,-2.0,-8.0,14.0,-992.0,-227.0
9.0,-241.0,-61.0,42.0,-2.0,-9.0,19.0,-990.0,-230.0
9.0,-241.0,-62.0,42.0,-3.0,-10.0,22.0,-989.0,-227.0
8.0,-241.0,-61.0,42.0,-4.0,-9.0,16.0,-991.0,-231.0
12.0,-242.0,-62.0,42.0,-3.0,-9.0,18.0,-991.0,-222.0
6.0,-242.0,-59.0,42.0,-3.0,-11.0,17.0,-992.0,-229.0
7.0,-243.0,-59.0,42.0,-3.0,-11.0,16.0,-991.0,-229.0
9.0,-242.0,-58.0,44.0,-2.0,-11.0,22.0,-994.0,-231.0
7.0,-242.0,-63.0,46.0,-2.0,-11.0,16.0,-994.0,-230.0
9.0,-243.0,-62.0,49.0,0.0,-12.0,21.0,-987.0,-226.0
7.0,-241.0,-62.0,51.0,2.0,-13.0,17.0,-991.0,-226.0
12.0,-241.0,-63.0,53.0,1.0,-11.0,18.0,-994.0,-229.0
8.0,-243.0,-63.0,54.0,2.0,-12.0,17.0,-985.0,-237.0
5.0,-240.0,-62.0,53.0,1.0,-11.0,22.0,-994.0,-229.0
7.0,-239.0,-62.0,54.0,0.0,-13.0,17.0,-990.0,-229.0
10.0,-243.0,-61.0,53.0,-1.0,-12.0,24.0,-993.0,-232.0
6.0,-238.0,-63.0,52.0,-2.0,-11.0,17.0,-991.0,-232.0
7.0,-240.0,-63.0,52.0,-2.0,-13.0,19.0,-991.0,-226.0
7.0,-243.0,-61.0,53.0,-3.0,-12.0,23.0,-993.0,-230.0
9.0,-240.0,-60.0,53.0,-2.0,-11.0,18.0,-991.0,-228.0
8.0,-240.0,-62.0,52.0,-2.0,-14.0,24.0,-989.0,-234.0
11.0,-243.0,-61.0,52.0,-2.0,-15.0,19.0,-989.0,-231.0
6.0,-239.0,-62.0,51.0,1.0,-14.0,22.0,-992.0,-228.0
8.0,-240.0,-67.0,51.0,0.0,-15.0,20.0,-993.0,-229.0
6.0,-239.0,-58.0,50.0,1.0,-14.0,20.0,-990.0,-233.0
9.0,-241.0,-65.0,52.0,2.0,-13.0,19.0,-993.0,-230.0
10.0,-240.0,-67.0,53.0,2.0,-14.0,18.0,-988.0,-222.0
9.0,-241.0,-65.0,55.0,2.0,-14.0,22.0,-987.0,-229.0
6.0,-242.0,-64.0,56.0,5.0,-15.0,25.0,-991.0,-231.0
11.0,-242.0,-62.0,56.0,6.0,-15.0,24.0,-989.0,-226.0
11.0,-239.0,-59.0,55.0,6.0,-14.0,19.0,-984.0,-227.0
9.0,-239.0,-62.0,55.0,6.0,-13.0,19.0,-986.0,-233.0
11.0,-238.0,-60.0,52.0,7.0,-15.0,21.0,-987.0,-231.0
9.0,-237.0,-62.0,51.0,7.0,-15.0,24.0,-987.0,-231.0
9.0,-241.0,-62.0,48.0,8.0,-15.0,22.0,-985.0,-231.0
6.0,-238.0,-63.0,47.0,9.0,-14.0,18.0,-984.0,-232.0
8.0,-242.0,-57.0,46.0,9.0,-14.0,19.0,-985.0,-234.0
11.0,-242.0,-61.0,45.0,12.0,-14.0,16.0,-982.0,-226.0
3.0,-237.0,-67.0,46.0,13.0,-13.0,15.0,-987.0,-234.0
10.0,-242.0,-62.0,45.0,12.0,-14.0,22.0,-988.0,-226.0
8.0,-239.0,-65.0,44.0,14.0,-12.0,21.0,-987.0,-235.0
10.0,-241.0,-62.0,43.0,15.0,-12.0,19.0,-988.0,-231.0
9.0,-238.0,-60.0,44.0,14.0,-12.0,24.0,-989.0,-234.0
10.0,-241.0,-60.0,44.0,14.0,-12.0,21.0,-989.0,-229.0
13.0,-242.0,-63.0,44.0,14.0,-11.0,25.0,-986.0,-237.0
11.0,-242.0,-64.0,43.0,14.0,-11.0,24.0,-986.0,-231.0
10.0,-242.0,-63.0,43.0,14.0,-10.0,22.0,-989.0,-237.0
9.0,-240.0,-60.0,45.0,15.0,-11.0,25.0,-987.0,-231.0
11.0,-241.0,-68.0,46.0,15.0,-12.0,23.0,-994.0,-229.0
17.0,-244.0,-50.0,46.0,16.0,-9.0,24.0,-993.0,-234.0
9.0,-241.0,-62.0,48.0,17.0,-10.0,20.0,-992.0,-232.0
7.0,-238.0,-66.0,51.0,18.0,-9.0,26.0,-993.0,-229.0
9.0,-241.0,-62.0,52.0,18.0,-9.0,24.0,-990.0,-232.0
6.0,-238.0,-62.0,53.0,16.0,-8.0,20.0,-991.0,-231.0
12.0,-240.0,-61.0,53.0,15.0,-8.0,23.0,-987.0,-235.0
8.0,-241.0,-59.0,52.0,15.0,-8.0,21.0,-991.0,-237.0
6.0,-243.0,-61.0,52.0,15.0,-8.0,16.0,-990.0,-236.0
12.0,-242.0,-63.0,52.0,16.0,-7.0,16.0,-991.0,-238.0
8.0,-242.0,-59.0,52.0,17.0,-7.0,17.0,-990.0,-235.0
8.0,-240.0,-63.0,49.0,17.0,-8.0,19.0,-987.0,-234.0
9.0,-237.0,-66.0,49.0,20.0,-8.0,18.0,-990.0,-237.0
8.0,-242.0,-61.0,49.0,21.0,-6.0,21.0,-990.0,-237.0
8.0,-240.0,-64.0,49.0,23.0,-7.0,17.0,-988.0,-238.0
7.0,-242.0,-64.0,48.0,24.0,-9.0,17.0,-987.0,-235.0
9.0,-236.0,-63.0,47.0,25.0,-8.0,20.0,-987.0,-236.0
8.0,-238.0,-62.0,48.0,25.0,-9.0,23.0,-987.0,-243.0
9.0,-240.0,-64.0,49.0,26.0,-8.0,21.0,-988.0,-241.0
11.0,-241.0,-63.0,49.0,26.0,-7.0,21.0,-987.0,-238.0
11.0,-242.0,-60.0,49.0,25.0,-8.0,23.0,-986.0,-233.0
10.0,-240.0,-58.0,48.0,25.0,-8.0,23.0,-990.0,-232.0
13.0,-241.0,-56.0,49.0,25.0,-8.0,21.0,-989.0,-231.0
7.0,-239.0,-62.0,49.0,26.0,-9.0,20.0,-981.0,-232.0
10.0,-238.0,-64.0,51.0,25.0,-9.0,17.0,-987.0,-240.0
8.0,-238.0,-64.0,51.0,25.0,-9.0,15.0,-983.0,-228.0
7.0,-240.0,-65.0,49.0,25.0,-11.0,19.0,-982.0,-238.0
10.0,-241.0,-63.0,46.0,24.0,-10.0,17.0,-977.0,-242.0
9.0,-239.0,-64.0,43.0,21.0,-12.0,19.0,-981.0,-230.0
5.0,-241.0,-64.0,41.0,20.0,-10.0,18.0,-979.0,-241.0
6.0,-240.0,-64.0,40.0,20.0,-10.0,14.0,-983.0,-241.0
9.0,-240.0,-60.0,41.0,19.0,-10.0,14.0,-983.0,-245.0
6.0,-239.0,-65.0,42.0,19.0,-10.0,16.0,-978.0,-243.0
5.0,-243.0,-63.0,45.0,20.0,-10.0,15.0,-979.0,-241.0
8.0,-240.0,-65.0,45.0,20.0,-9.0,16.0,-984.0,-241.0
8.0,-241.0,-63.0,46.0,19.0,-9.0,19.0,-988.0,-234.0
7.0,-241.0,-64.0,45.0,18.0,-10.0,17.0,-985.0,-236.0
9.0,-243.0,-64.0,45.0,18.0,-9.0,15.0,-988.0,-232.0
8.0,-240.0,-59.0,43.0,18.0,-9.0,19.0,-990.0,-228.0
7.0,-242.0,-61.0,41.0,19.0,-10.0,14.0,-990.0,-228.0
7.0,-240.0,-57.0,41.0,18.0,-9.0,14.0,-992.0,-231.0
6.0,-240.0,-59.0,43.0,20.0,-9.0,13.0,-992.0,-233.0
8.0,-244.0,-62.0,47.0,19.0,-8.0,18.0,-992.0,-231.0
6.0,-243.0,-64.0,51.0,19.0,-7.0,19.0,-982.0,-241.0
5.0,-233.0,-64.0,56.0,20.0,-8.0,19.0,-987.0,-237.0
8.0,-239.0,-64.0,60.0,21.0,-10.0,17.0,-983.0,-249.0
5.0,-240.0,-64.0,64.0,20.0,-11.0,19.0,-987.0,-240.0
7.0,-241.0,-61.0,66.0,19.0,-11.0,16.0,-984.0,-241.0
6.0,-236.0,-63.0,66.0,20.0,-12.0,18.0,-983.0,-246.0
7.0,-239.0,-65.0,66.0,19.0,-14.0,16.0,-975.0,-241.0
7.0,-241.0,-64.0,63.0,18.0,-13.0,16.0,-977.0,-238.0
7.0,-237.0,-62.0,61.0,17.0,-14.0,13.0,-982.0,-239.0
5.0,-238.0,-62.0,56.0,15.0,-14.0,15.0,-983.0,-240.0
7.0,-239.0,-65.0,51.0,15.0,-13.0,15.0,-974.0,-242.0
5.0,-240.0,-64.0,45.0,14.0,-14.0,16.0,-980.0,-243.0
7.0,-243.0,-58.0,41.0,12.0,-13.0,11.0,-983.0,-245.0
7.0,-237.0,-61.0,39.0,11.0,-14.0,14.0,-980.0,-246.0
8.0,-238.0,-68.0,34.0,8.0,-10.0,15.0,-978.0,-243.0
7.0,-239.0,-66.0,31.0,6.0,-12.0,14.0,-985.0,-241.0
3.0,-236.0,-63.0,32.0,5.0,-12.0,9.0,-977.0,-243.0
8.0,-239.0,-61.0,30.0,3.0,-13.0,13.0,-984.0,-241.0
5.0,-240.0,-62.0,29.0,0.0,-12.0,14.0,-982.0,-238.0
6.0,-238.0,-63.0,30.0,0.0,-13.0,16.0,-986.0,-235.0
7.0,-239.0,-65.0,33.0,0.0,-12.0,15.0,-989.0,-242.0
9.0,-241.0,-66.0,35.0,-2.0,-13.0,15.0,-991.0,-241.0
8.0,-239.0,-63.0,38.0,-1.0,-14.0,14.0,-989.0,-240.0
7.0,-239.0,-70.0,41.0,-2.0,-14.0,9.0,-990.0,-231.0
8.0,-241.0,-62.0,44.0,-1.0,-15.0,14.0,-984.0,-239.0
7.0,-239.0,-61.0,45.0,0.0,-16.0,13.0,-989.0,-235.0
6.0,-240.0,-63.0,48.0,0.0,-20.0,14.0,-987.0,-236.0
9.0,-242.0,-62.0,50.0,0.0,-21.0,18.0,-988.0,-242.0
5.0,-243.0,-63.0,49.0,0.0,-22.0,16.0,-993.0,-229.0
5.0,-240.0,-65.0,50.0,-1.0,-24.0,13.0,-990.0,-236.0
5.0,-239.0,-61.0,52.0,-2.0,-23.0,8.0,-989.0,-236.0
3.0,-240.0,-62.0,52.0,-1.0,-26.0,13.0,-984.0,-232.0
8.0,-238.0,-67.0,54.0,-2.0,-28.0,7.0,-982.0,-242.0
6.0,-241.0,-61.0,55.0,-2.0,-28.0,8.0,-982.0,-241.0
1.0,-237.0,-64.0,56.0,-2.0,-28.0,16.0,-981.0,-242.0
3.0,-238.0,-65.0,58.0,-4.0,-28.0,9.0,-980.0,-241.0
5.0,-239.0,-63.0,58.0,-5.0,-30.0,12.0,-978.0,-242.0
8.0,-238.0,-63.0,58.0,-5.0,-29.0,9.0,-984.0,-238.0
6.0,-238.0,-63.0,58.0,-6.0,-27.0,12.0,-984.0,-243.0
5.0,-240.0,-63.0,57.0,-6.0,-26.0,15.0,-989.0,-235.0
6.0,-239.0,-63.0,55.0,-8.0,-25.0,13.0,-989.0,-237.0
3.0,-240.0,-68.0,55.0,-11.0,-24.0,11.0,-986.0,-231.0
9.0,-239.0,-66.0,54.0,-12.0,-24.0,11.0,-992.0,-238.0
8.0,-239.0,-62.0,53.0,-14.0,-22.0,11.0,-996.0,-240.0
9.0,-240.0,-64.0,52.0,-11.0,-18.0,14.0,-996.0,-240.0
8.0,-235.0,-71.0,52.0,-12.0,-18.0,19.0,-991.0,-232.0
8.0,-243.0,-64.0,51.0,-11.0,-17.0,19.0,-992.0,-234.0
6.0,-242.0,-67.0,51.0,-11.0,-17.0,19.0,-993.0,-236.0
7.0,-240.0,-61.0,52.0,-9.0,-17.0,19.0,-995.0,-239.0
7.0,-244.0,-63.0,53.0,-9.0,-16.0,17.0,-992.0,-242.0
8.0,-244.0,-64.0,55.0,-8.0,-15.0,16.0,-991.0,-239.0
8.0,-241.0,-63.0,59.0,-9.0,-14.0,17.0,-990.0,-243.0
8.0,-242.0,-62.0,62.0,-9.0,-17.0,13.0,-992.0,-242.0
6.0,-241.0,-63.0,65.0,-9.0,-16.0,13.0,-985.0,-244.0
5.0,-237.0,-65.0,66.0,-9.0,-15.0,10.0,-984.0,-243.0
5.0,-240.0,-66.0,69.0,-11.0,-14.0,8.0,-983.0,-250.0
9.0,-243.0,-67.0,69.0,-12.0,-16.0,5.0,-982.0,-249.0
3.0,-239.0,-64.0,70.0,-12.0,-16.0,10.0,-987.0,-245.0
3.0,-241.0,-64.0,71.0,-13.0,-18.0,7.0,-980.0,-249.0
4.0,-239.0,-65.0,70.0,-14.0,-19.0,9.0,-975.0,-246.0
3.0,-235.0,-65.0,69.0,-14.0,-18.0,6.0,-975.0,-248.0
5.0,-240.0,-65.0,67.0,-15.0,-18.0,0.0,-979.0,-247.0
4.0,-242.0,-68.0,66.0,-15.0,-18.0,3.0,-977.0,-246.0
4.0,-238.0,-67.0,66.0,-14.0,-19.0,-2.0,-974.0,-248.0
4.0,-237.0,-68.0,66.0,-14.0,-18.0,1.0,-978.0,-258.0
1.0,-237.0,-65.0,66.0,-16.0,-19.0,0.0,-965.0,-250.0
7.0,-239.0,-69.0,68.0,-16.0,-19.0,0.0,-978.0,-261.0
8.0,-235.0,-67.0,69.0,-16.0,-19.0,1.0,-974.0,-255.0
4.0,-234.0,-70.0,71.0,-16.0,-18.0,7.0,-975.0,-269.0
4.0,-238.0,-72.0,72.0,-15.0,-18.0,9.0,-977.0,-258.0
7.0,-238.0,-71.0,74.0,-15.0,-15.0,8.0,-974.0,-262.0
6.0,-238.0,-73.0,76.0,-13.0,-13.0,9.0,-976.0,-273.0
7.0,-235.0,-71.0,77.0,-11.0,-11.0,9.0,-969.0,-272.0
4.0,-234.0,-70.0,80.0,-8.0,-9.0,12.0,-975.0,-273.0
11.0,-240.0,-72.0,84.0,-6.0,-6.0,13.0,-975.0,-272.0
10.0,-239.0,-73.0,87.0,-5.0,-4.0,13.0,-968.0,-275.0
10.0,-241.0,-68.0,91.0,-2.0,0.0,18.0,-970.0,-273.0
5.0,-234.0,-75.0,95.0,1.0,1.0,17.0,-966.0,-280.0
7.0,-236.0,-66.0,97.0,4.0,4.0,19.0,-964.0,-284.0
10.0,-235.0,-74.0,96.0,7.0,8.0,15.0,-956.0,-280.0
7.0,-231.0,-69.0,94.0,8.0,10.0,10.0,-951.0,-286.0
5.0,-231.0,-72.0,90.0,11.0,14.0,16.0,-951.0,-277.0
7.0,-229.0,-71.0,84.0,11.0,18.0,11.0,-946.0,-271.0
4.0,-226.0,-72.0,77.0,12.0,22.0,8.0,-943.0,-279.0
5.0,-228.0,-71.0,71.0,11.0,28.0,8.0,-933.0,-274.0
7.0,-226.0,-70.0,65.0,12.0,31.0,7.0,-931.0,-273.0
7.0,-222.0,-66.0,59.0,13.0,36.0,7.0,-924.0,-267.0
4.0,-224.0,-65.0,52.0,12.0,40.0,6.0,-923.0,-265.0
1.0,-215.0,-62.0,45.0,12.0,45.0,8.0,-917.0,-263.0
1.0,-223.0,-68.0,43.0,8.0,49.0,6.0,-921.0,-262.0
2.0,-222.0,-67.0,43.0,1.0,54.0,-3.0,-916.0,-260.0
0.0,-222.0,-68.0,42.0,-5.0,58.0,-5.0,-917.0,-266.0
0.0,-225.0,-71.0,38.0,-12.0,62.0,-15.0,-916.0,-273.0
0.0,-223.0,-71.0,32.0,-17.0,65.0,-19.0,-915.0,-273.0
-5.0,-219.0,-74.0,24.0,-20.0,69.0,-21.0,-917.0,-279.0
0.0,-222.0,-75.0,15.0,-25.0,73.0,-25.0,-912.0,-283.0
-3.0,-221.0,-77.0,5.0,-27.0,80.0,-31.0,-903.0,-300.0
-3.0,-215.0,-78.0,-8.0,-27.0,84.0,-29.0,-897.0,-309.0
-4.0,-213.0,-81.0,-27.0,-26.0,90.0,-32.0,-886.0,-319.0
-7.0,-211.0,-80.0,-50.0,-25.0,95.0,-29.0,-881.0,-322.0
-2.0,-209.0,-77.0,-75.0,-22.0,100.0,-31.0,-874.0,-320.0
-1.0,-209.0,-79.0,-99.0,-20.0,106.0,-31.0,-864.0,-324.0
-2.0,-206.0,-80.0,-122.0,-13.0,113.0,-28.0,-858.0,-314.0
0.0,-205.0,-81.0,-141.0,-8.0,121.0,-22.0,-846.0,-319.0
-1.0,-201.0,-81.0,-158.0,1.0,132.0,-21.0,-844.0,-309.0
0.0,-203.0,-78.0,-170.0,8.0,145.0,-16.0,-835.0,-312.0
2.0,-197.0,-74.0,-178.0,16.0,155.0,-7.0,-835.0,-298.0
2.0,-196.0,-71.0,-179.0,22.0,165.0,-4.0,-822.0,-277.0
3.0,-203.0,-68.0,-175.0,29.0,174.0,1.0,-817.0,-260.0
4.0,-197.0,-63.0,-164.0,33.0,185.0,6.0,-820.0,-241.0
8.0,-204.0,-57.0,-147.0,37.0,194.0,11.0,-825.0,-222.0
10.0,-203.0,-55.0,-128.0,42.0,204.0,17.0,-826.0,-199.0
10.0,-202.0,-51.0,-110.0,46.0,213.0,15.0,-837.0,-184.0
7.0,-208.0,-48.0,-95.0,49.0,225.0,14.0,-844.0,-174.0
6.0,-206.0,-49.0,-84.0,47.0,238.0,17.0,-862.0,-171.0
6.0,-212.0,-48.0,-78.0,41.0,252.0,12.0,-880.0,-176.0
5.0,-217.0,-51.0,-78.0,32.0,268.0,11.0,-884.0,-183.0
5.0,-217.0,-50.0,-80.0,23.0,285.0,11.0,-902.0,-191.0
6.0,-222.0,-61.0,-86.0,13.0,299.0,13.0,-915.0,-208.0
7.0,-228.0,-58.0,-93.0,2.0,311.0,12.0,-934.0,-221.0
4.0,-231.0,-62.0,-101.0,-10.0,323.0,5.0,-950.0,-234.0
6.0,-235.0,-63.0,-110.0,-21.0,332.0,-6.0,-973.0,-247.0
0.0,-243.0,-68.0,-119.0,-33.0,341.0,-15.0,-986.0,-267.0
-2.0,-247.0,-72.0,-130.0,-43.0,350.0,-32.0,-1004.0,-278.0
-5.0,-248.0,-76.0,-141.0,-50.0,361.0,-44.0,-1019.0,-288.0
-9.0,-252.0,-74.0,-152.0,-51.0,372.0,-48.0,-1039.0,-289.0
-9.0,-257.0,-75.0,-159.0,-51.0,380.0,-53.0,-1050.0,-290.0
-12.0,-257.0,-74.0,-160.0,-49.0,388.0,-62.0,-1068.0,-281.0
-11.0,-259.0,-73.0,-158.0,-46.0,392.0,-62.0,-1068.0,-273.0
-14.0,-258.0,-69.0,-154.0,-44.0,398.0,-65.0,-1078.0,-267.0
-7.0,-263.0,-65.0,-150.0,-43.0,402.0,-63.0,-1078.0,-256.0
-9.0,-265.0,-63.0,-145.0,-41.0,402.0,-45.0,-1092.0,-244.0
-9.0,-262.0,-62.0,-138.0,-39.0,399.0,-44.0,-1100.0,-233.0
-7.0,-270.0,-57.0,-128.0,-41.0,394.0,-36.0,-1111.0,-220.0
-7.0,-274.0,-60.0,-114.0,-42.0,385.0,-42.0,-1126.0,-221.0
-8.0,-274.0,-62.0,-100.0,-42.0,374.0,-36.0,-1130.0,-226.0
-4.0,-276.0,-66.0,-86.0,-42.0,359.0,-41.0,-1136.0,-240.0
-3.0,-278.0,-69.0,-75.0,-37.0,342.0,-36.0,-1136.0,-248.0
-5.0,-278.0,-69.0,-63.0,-32.0,324.0,-38.0,-1136.0,-264.0
-6.0,-274.0,-71.0,-50.0,-25.0,304.0,-33.0,-1128.0,-265.0
-3.0,-273.0,-71.0,-36.0,-20.0,281.0,-26.0,-1126.0,-276.0
-7.0,-270.0,-71.0,-30.0,-16.0,258.0,-32.0,-1119.0,-265.0
-4.0,-271.0,-70.0,-26.0,-14.0,235.0,-42.0,-1119.0,-275.0
-8.0,-269.0,-79.0,-31.0,-15.0,211.0,-43.0,-1111.0,-276.0
-9.0,-266.0,-70.0,-38.0,-17.0,192.0,-51.0,-1102.0,-286.0
-10.0,-265.0,-78.0,-49.0,-21.0,171.0,-50.0,-1099.0,-297.0
-13.0,-260.0,-81.0,-66.0,-23.0,150.0,-54.0,-1086.0,-298.0
-12.0,-261.0,-79.0,-79.0,-25.0,130.0,-57.0,-1077.0,-308.0
-13.0,-256.0,-80.0,-91.0,-27.0,111.0,-61.0,-1069.0,-309.0
-6.0,-258.0,-83.0,-98.0,-28.0,95.0,-52.0,-1050.0,-317.0
-12.0,-251.0,-83.0,-102.0,-27.0,80.0,-52.0,-1037.0,-309.0
-9.0,-246.0,-80.0,-108.0,-22.0,64.0,-52.0,-1013.0,-311.0
-10.0,-246.0,-78.0,-113.0,-17.0,52.0,-51.0,-1003.0,-303.0
-6.0,-244.0,-66.0,-117.0,-12.0,38.0,-49.0,-991.0,-303.0
-8.0,-239.0,-74.0,-123.0,-6.0,27.0,-44.0,-976.0,-291.0
-7.0,-236.0,-75.0,-131.0,-2.0,16.0,-41.0,-963.0,-283.0
-7.0,-231.0,-72.0,-139.0,-1.0,6.0,-49.0,-956.0,-274.0
-10.0,-230.0,-69.0,-146.0,-2.0,-4.0,-51.0,-952.0,-268.0
-7.0,-231.0,-66.0,-150.0,-8.0,-10.0,-47.0,-944.0,-266.0
-8.0,-228.0,-69.0,-152.0,-15.0,-16.0,-44.0,-936.0,-275.0
-10.0,-224.0,-66.0,-150.0,-24.0,-17.0,-42.0,-929.0,-275.0
-7.0,-223.0,-64.0,-147.0,-30.0,-20.0,-45.0,-922.0,-274.0
-4.0,-223.0,-72.0,-144.0,-37.0,-20.0,-40.0,-917.0,-280.0
-9.0,-220.0,-72.0,-140.0,-44.0,-19.0,-38.0,-910.0,-280.0
-11.0,-218.0,-66.0,-136.0,-51.0,-19.0,-38.0,-900.0,-288.0
-5.0,-215.0,-72.0,-130.0,-62.0,-18.0,-38.0,-886.0,-287.0
-8.0,-213.0,-75.0,-122.0,-74.0,-18.0,-43.0,-888.0,-290.0
-5.0,-213.0,-75.0,-115.0,-86.0,-17.0,-49.0,-884.0,-288.0
-9.0,-213.0,-79.0,-110.0,-99.0,-17.0,-54.0,-874.0,-294.0
-11.0,-210.0,-76.0,-111.0,-111.0,-17.0,-59.0,-879.0,-305.0
-11.0,-217.0,-82.0,-115.0,-126.0,-17.0,-65.0,-876.0,-317.0
-14.0,-211.0,-76.0,-123.0,-141.0,-13.0,-71.0,-870.0,-316.0
-20.0,-211.0,-79.0,-129.0,-153.0,-10.0,-69.0,-878.0,-311.0
-16.0,-216.0,-78.0,-133.0,-165.0,-5.0,-79.0,-880.0,-327.0
-12.0,-218.0,-78.0,-136.0,-176.0,1.0,-72.0,-881.0,-327.0
-19.0,-219.0,-89.0,-133.0,-185.0,6.0,-72.0,-886.0,-331.0
-14.0,-217.0,-83.0,-131.0,-193.0,14.0,-77.0,-898.0,-332.0
-13.0,-220.0,-85.0,-129.0,-198.0,25.0,-67.0,-906.0,-338.0
-16.0,-222.0,-89.0,-133.0,-202.0,36.0,-72.0,-910.0,-341.0
-14.0,-222.0,-91.0,-133.0,-205.0,47.0,-65.0,-925.0,-350.0
-14.0,-222.0,-94.0,-130.0,-209.0,57.0,-62.0,-919.0,-363.0
-11.0,-225.0,-96.0,-122.0,-215.0,65.0,-59.0,-927.0,-371.0
-12.0,-229.0,-95.0,-112.0,-218.0,67.0,-61.0,-918.0,-380.0
-14.0,-222.0,-99.0,-96.0,-221.0,69.0,-61.0,-925.0,-392.0
-13.0,-225.0,-100.0,-83.0,-223.0,67.0,-55.0,-923.0,-394.0
-15.0,-223.0,-98.0,-70.0,-224.0,62.0,-63.0,-923.0,-389.0
-14.0,-223.0,-95.0,-57.0,-224.0,57.0,-60.0,-918.0,-390.0
-16.0,-222.0,-94.0,-45.0,-225.0,51.0,-65.0,-917.0,-386.0
-13.0,-224.0,-102.0,-36.0,-225.0,44.0,-65.0,-919.0,-383.0
-13.0,-221.0,-96.0,-30.0,-222.0,35.0,-62.0,-912.0,-378.0
-12.0,-217.0,-96.0,-29.0,-218.0,24.0,-58.0,-903.0,-379.0
-12.0,-217.0,-102.0,-31.0,-212.0,13.0,-64.0,-896.0,-400.0
-16.0,-213.0,-100.0,-42.0,-205.0,3.0,-65.0,-888.0,-405.0
-12.0,-210.0,-100.0,-59.0,-201.0,-6.0,-63.0,-871.0,-411.0
-10.0,-209.0,-106.0,-79.0,-196.0,-14.0,-63.0,-859.0,-404.0
-16.0,-200.0,-98.0,-96.0,-193.0,-19.0,-66.0,-845.0,-397.0
-15.0,-201.0,-94.0,-111.0,-192.0,-22.0,-67.0,-835.0,-380.0
-12.0,-195.0,-93.0,-125.0,-193.0,-24.0,-82.0,-816.0,-363.0
-15.0,-194.0,-89.0,-145.0,-192.0,-22.0,-75.0,-811.0,-352.0
-12.0,-193.0,-82.0,-166.0,-188.0,-17.0,-69.0,-802.0,-347.0
-13.0,-192.0,-85.0,-194.0,-181.0,-11.0,-57.0,-791.0,-336.0
-7.0,-190.0,-79.0,-229.0,-173.0,1.0,-47.0,-789.0,-324.0
-5.0,-191.0,-79.0,-266.0,-160.0,9.0,-38.0,-787.0,-310.0
-3.0,-190.0,-81.0,-303.0,-144.0,17.0,-32.0,-793.0,-311.0
-1.0,-191.0,-78.0,-335.0,-129.0,25.0,-22.0,-799.0,-317.0
0.0,-195.0,-79.0,-369.0,-118.0,32.0,-23.0,-810.0,-319.0
0.0,-202.0,-79.0,-396.0,-110.0,43.0,-31.0,-817.0,-322.0
-6.0,-202.0,-86.0,-422.0,-111.0,54.0,-37.0,-838.0,-326.0
-9.0,-208.0,-89.0,-442.0,-118.0,67.0,-51.0,-857.0,-329.0
-7.0,-212.0,-88.0,-454.0,-128.0,80.0,-52.0,-875.0,-341.0
-11.0,-217.0,-91.0,-460.0,-142.0,93.0,-50.0,-891.0,-359.0
-13.0,-219.0,-91.0,-463.0,-152.0,108.0,-50.0,-914.0,-370.0
-12.0,-225.0,-99.0,-464.0,-165.0,123.0,-60.0,-922.0,-389.0
-14.0,-228.0,-101.0,-466.0,-174.0,136.0,-68.0,-940.0,-402.0
-16.0,-232.0,-105.0,-469.0,-183.0,150.0,-80.0,-954.0,-408.0
-21.0,-233.0,-104.0,-477.0,-191.0,164.0,-93.0,-961.0,-417.0
-19.0,-238.0,-106.0,-482.0,-196.0,177.0,-99.0,-978.0,-411.0
-27.0,-242.0,-101.0,-484.0,-199.0,190.0,-110.0,-996.0,-408.0
-23.0,-244.0,-103.0,-479.0,-204.0,198.0,-116.0,-1014.0,-402.0
-25.0,-244.0,-104.0,-468.0,-205.0,202.0,-126.0,-1022.0,-398.0
-29.0,-254.0,-102.0,-459.0,-201.0,208.0,-124.0,-1034.0,-417.0
-26.0,-255.0,-109.0,-450.0,-191.0,208.0,-122.0,-1051.0,-413.0
-27.0,-258.0,-103.0,-445.0,-177.0,205.0,-121.0,-1063.0,-411.0
-31.0,-258.0,-101.0,-438.0,-166.0,196.0,-127.0,-1074.0,-411.0
-29.0,-260.0,-106.0,-421.0,-152.0,186.0,-134.0,-1068.0,-412.0
-29.0,-255.0,-106.0,-393.0,-138.0,187.0,-138.0,-1055.0,-438.0
-32.0,-248.0,-116.0,-360.0,-119.0,197.0,-133.0,-1022.0,-457.0
-27.0,-241.0,-131.0,-334.0,-95.0,209.0,-129.0,-986.0,-502.0
-27.0,-232.0,-142.0,-325.0,-57.0,234.0,-119.0,-949.0,-573.0
-23.0,-220.0,-165.0,-346.0,-5.0,260.0,-94.0,-918.0,-614.0
-17.0,-221.0,-152.0,-397.0,49.0,274.0,-82.0,-917.0,-612.0
-14.0,-225.0,-141.0,-471.0,92.0,265.0,-74.0,-936.0,-570.0
-11.0,-233.0,-121.0,-537.0,112.0,228.0,-51.0,-956.0,-480.0
-11.0,-237.0,-106.0,-572.0,105.0,189.0,-46.0,-967.0,-406.0
-6.0,-240.0,-96.0,-560.0,76.0,160.0,-33.0,-984.0,-384.0
-3.0,-243.0,-95.0,-521.0,49.0,140.0,-19.0,-998.0,-373.0
-5.0,-248.0,-97.0,-479.0,38.0,121.0,-30.0,-1013.0,-378.0
-9.0,-252.0,-97.0,-440.0,44.0,110.0,-43.0,-1032.0,-381.0
-9.0,-256.0,-102.0,-403.0,63.0,95.0,-51.0,-1054.0,-387.0
-17.0,-260.0,-100.0,-372.0,82.0,69.0,-81.0,-1072.0,-381.0
-30.0,-262.0,-100.0,-350.0,96.0,33.0,-113.0,-1076.0,-375.0
-31.0,-269.0,-94.0,-322.0,107.0,-1.0,-134.0,-1082.0,-364.0
-36.0,-265.0,-94.0,-284.0,115.0,-32.0,-155.0,-1085.0,-364.0
-41.0,-263.0,-89.0,-235.0,118.0,-62.0,-176.0,-1086.0,-347.0
-48.0,-265.0,-88.0,-180.0,115.0,-89.0,-204.0,-1080.0,-339.0
-53.0,-261.0,-85.0,-121.0,103.0,-111.0,-218.0,-1076.0,-338.0
-54.0,-261.0,-85.0,-65.0,91.0,-133.0,-225.0,-1071.0,-345.0
-55.0,-256.0,-90.0,-12.0,75.0,-150.0,-228.0,-1064.0,-349.0
-57.0,-257.0,-92.0,39.0,59.0,-168.0,-225.0,-1053.0,-353.0
-54.0,-254.0,-93.0,88.0,39.0,-184.0,-224.0,-1032.0,-360.0
-58.0,-246.0,-94.0,133.0,16.0,-203.0,-224.0,-1018.0,-381.0
-56.0,-243.0,-96.0,171.0,-14.0,-217.0,-226.0,-996.0,-385.0
-56.0,-241.0,-104.0,204.0,-48.0,-228.0,-219.0,-986.0,-404.0
-55.0,-235.0,-106.0,231.0,-86.0,-236.0,-222.0,-955.0,-423.0
-54.0,-225.0,-110.0,246.0,-126.0,-241.0,-224.0,-932.0,-436.0
-57.0,-219.0,-116.0,251.0,-169.0,-240.0,-223.0,-911.0,-450.0
-56.0,-217.0,-119.0,240.0,-214.0,-240.0,-217.0,-898.0,-450.0
-52.0,-210.0,-116.0,217.0,-261.0,-241.0,-219.0,-874.0,-459.0
-51.0,-208.0,-111.0,188.0,-305.0,-248.0,-208.0,-859.0,-449.0
-49.0,-207.0,-113.0,157.0,-346.0,-255.0,-199.0,-852.0,-448.0
-48.0,-205.0,-112.0,129.0,-382.0,-268.0,-195.0,-839.0,-445.0
-40.0,-202.0,-109.0,104.0,-414.0,-282.0,-188.0,-831.0,-441.0
-37.0,-201.0,-109.0,82.0,-442.0,-298.0,-185.0,-813.0,-451.0
-42.0,-194.0,-118.0,59.0,-466.0,-314.0,-167.0,-795.0,-467.0
-38.0,-189.0,-125.0,32.0,-480.0,-329.0,-162.0,-786.0,-499.0
-36.0,-185.0,-132.0,-1.0,-486.0,-345.0,-148.0,-771.0,-540.0
-27.0,-186.0,-141.0,-41.0,-479.0,-361.0,-130.0,-754.0,-573.0
-27.0,-178.0,-150.0,-86.0,-465.0,-380.0,-118.0,-746.0,-613.0
-26.0,-178.0,-158.0,-133.0,-441.0,-398.0,-108.0,-733.0,-644.0
-22.0,-175.0,-164.0,-179.0,-411.0,-415.0,-104.0,-714.0,-654.0
-20.0,-166.0,-162.0,-222.0,-377.0,-427.0,-99.0,-701.0,-662.0
-19.0,-165.0,-168.0,-265.0,-336.0,-434.0,-87.0,-683.0,-655.0
-16.0,-160.0,-161.0,-304.0,-292.0,-429.0,-80.0,-664.0,-645.0
-7.0,-162.0,-157.0,-335.0,-239.0,-409.0,-51.0,-662.0,-636.0
0.0,-157.0,-159.0,-358.0,-184.0,-382.0,-9.0,-658.0,-629.0
6.0,-159.0,-159.0,-380.0,-136.0,-347.0,17.0,-666.0,-639.0
12.0,-163.0,-159.0,-413.0,-108.0,-308.0,38.0,-684.0,-646.0
17.0,-168.0,-167.0,-463.0,-102.0,-270.0,66.0,-717.0,-661.0
21.0,-180.0,-164.0,-532.0,-109.0,-240.0,73.0,-750.0,-670.0
22.0,-191.0,-166.0,-608.0,-120.0,-220.0,81.0,-791.0,-676.0
22.0,-205.0,-162.0,-683.0,-120.0,-213.0,80.0,-849.0,-659.0
24.0,-223.0,-154.0,-742.0,-102.0,-218.0,73.0,-930.0,-631.0
17.0,-238.0,-143.0,-776.0,-67.0,-241.0,42.0,-985.0,-581.0
7.0,-257.0,-136.0,-776.0,-11.0,-279.0,10.0,-1052.0,-561.0
-8.0,-269.0,-136.0,-737.0,62.0,-327.0,-36.0,-1100.0,-521.0
-17.0,-274.0,-138.0,-661.0,136.0,-365.0,-80.0,-1113.0,-567.0
-25.0,-266.0,-148.0,-592.0,204.0,-393.0,-107.0,-1080.0,-609.0
-34.0,-254.0,-165.0,-525.0,242.0,-411.0,-140.0,-1030.0,-655.0
-40.0,-240.0,-176.0,-465.0,235.0,-415.0,-159.0,-972.0,-708.0
-41.0,-223.0,-185.0,-428.0,200.0,-399.0,-165.0,-938.0,-736.0
-27.0,-223.0,-183.0,-423.0,171.0,-346.0,-117.0,-920.0,-739.0
-8.0,-218.0,-176.0,-436.0,141.0,-273.0,-51.0,-904.0,-715.0
2.0,-212.0,-173.0,-434.0,100.0,-215.0,9.0,-871.0,-690.0
10.0,-199.0,-162.0,-420.0,44.0,-191.0,37.0,-841.0,-660.0
13.0,-197.0,-157.0,-418.0,-9.0,-188.0,65.0,-834.0,-624.0
25.0,-201.0,-149.0,-443.0,-40.0,-196.0,84.0,-825.0,-590.0
29.0,-200.0,-135.0,-488.0,-45.0,-208.0,90.0,-836.0,-535.0
25.0,-201.0,-122.0,-540.0,-24.0,-216.0,89.0,-842.0,-488.0
27.0,-211.0,-114.0,-588.0,13.0,-224.0,77.0,-876.0,-443.0
25.0,-221.0,-104.0,-621.0,61.0,-223.0,81.0,-916.0,-401.0
21.0,-233.0,-93.0,-630.0,120.0,-211.0,64.0,-951.0,-353.0
19.0,-242.0,-86.0,-601.0,177.0,-196.0,52.0,-990.0,-345.0
10.0,-251.0,-90.0,-536.0,222.0,-177.0,19.0,-1014.0,-347.0
-4.0,-255.0,-89.0,-442.0,249.0,-159.0,-16.0,-1039.0,-346.0
-13.0,-261.0,-90.0,-322.0,264.0,-141.0,-59.0,-1059.0,-358.0
-20.0,-259.0,-101.0,-184.0,272.0,-123.0,-95.0,-1058.0,-377.0
-31.0,-257.0,-103.0,-46.0,277.0,-102.0,-125.0,-1036.0,-401.0
-34.0,-252.0,-113.0,79.0,267.0,-82.0,-150.0,-1021.0,-426.0
-38.0,-243.0,-119.0,176.0,252.0,-64.0,-159.0,-996.0,-453.0
-39.0,-237.0,-123.0,239.0,237.0,-45.0,-163.0,-968.0,-492.0
-42.0,-226.0,-129.0,256.0,231.0,-23.0,-170.0,-947.0,-524.0
-39.0,-223.0,-135.0,226.0,229.0,3.0,-166.0,-939.0,-545.0
-37.0,-221.0,-137.0,159.0,234.0,33.0,-153.0,-930.0,-568.0
-36.0,-224.0,-138.0,56.0,256.0,62.0,-149.0,-934.0,-566.0
-31.0,-226.0,-137.0,-22.0,287.0,94.0,-133.0,-935.0,-540.0
-30.0,-226.0,-131.0,-71.0,324.0,123.0,-130.0,-943.0,-536.0
-33.0,-233.0,-138.0,-95.0,360.0,149.0,-111.0,-950.0,-533.0
-24.0,-228.0,-136.0,-107.0,387.0,169.0,-103.0,-946.0,-552.0
-21.0,-229.0,-141.0,-118.0,408.0,183.0,-100.0,-943.0,-570.0
-21.0,-223.0,-143.0,-129.0,424.0,192.0,-102.0,-929.0,-583.0
-21.0,-222.0,-152.0,-141.0,437.0,189.0,-90.0,-921.0,-599.0
-14.0,-223.0,-154.0,-149.0,453.0,176.0,-68.0,-919.0,-623.0
-10.0,-224.0,-159.0,-146.0,475.0,152.0,-51.0,-920.0,-646.0
-7.0,-223.0,-162.0,-133.0,495.0,119.0,-41.0,-917.0,-672.0
-7.0,-224.0,-175.0,-112.0,515.0,78.0,-45.0,-915.0,-705.0
-14.0,-222.0,-184.0,-88.0,530.0,27.0,-50.0,-910.0,-742.0
-16.0,-219.0,-186.0,-65.0,536.0,-33.0,-64.0,-907.0,-756.0
-31.0,-217.0,-188.0,-48.0,529.0,-107.0,-99.0,-903.0,-755.0
-37.0,-218.0,-186.0,-40.0,509.0,-185.0,-146.0,-907.0,-738.0
-52.0,-219.0,-177.0,-35.0,483.0,-261.0,-205.0,-899.0,-717.0
-68.0,-217.0,-170.0,-27.0,459.0,-328.0,-264.0,-875.0,-691.0
-83.0,-204.0,-161.0,-11.0,441.0,-375.0,-323.0,-852.0,-659.0
-91.0,-197.0,-161.0,6.0,419.0,-397.0,-362.0,-821.0,-648.0
-100.0,-191.0,-161.0,11.0,379.0,-398.0,-386.0,-801.0,-651.0
-104.0,-184.0,-168.0,-4.0,309.0,-385.0,-408.0,-770.0,-697.0
-104.0,-170.0,-189.0,-41.0,225.0,-350.0,-410.0,-700.0,-760.0
-82.0,-160.0,-206.0,-89.0,155.0,-281.0,-341.0,-665.0,-846.0
-70.0,-150.0,-219.0,-148.0,99.0,-184.0,-260.0,-636.0,-883.0
-41.0,-147.0,-211.0,-220.0,53.0,-72.0,-175.0,-646.0,-870.0
-21.0,-162.0,-199.0,-287.0,13.0,47.0,-81.0,-667.0,-817.0
0.0,-173.0,-184.0,-341.0,-34.0,163.0,-4.0,-706.0,-747.0
15.0,-189.0,-162.0,-382.0,-98.0,256.0,54.0,-766.0,-665.0
25.0,-197.0,-148.0,-421.0,-185.0,303.0,97.0,-814.0,-605.0
32.0,-205.0,-142.0,-439.0,-272.0,312.0,122.0,-834.0,-570.0
45.0,-210.0,-143.0,-420.0,-323.0,308.0,154.0,-848.0,-566.0
52.0,-208.0,-143.0,-367.0,-322.0,286.0,182.0,-846.0,-570.0
62.0,-206.0,-137.0,-289.0,-270.0,245.0,202.0,-821.0,-557.0
62.0,-198.0,-137.0,-190.0,-186.0,189.0,220.0,-795.0,-541.0
66.0,-185.0,-127.0,-86.0,-78.0,113.0,232.0,-741.0,-526.0
64.0,-168.0,-128.0,13.0,40.0,22.0,232.0,-684.0,-508.0
64.0,-154.0,-120.0,87.0,158.0,-71.0,231.0,-637.0,-485.0
60.0,-143.0,-116.0,135.0,270.0,-155.0,211.0,-601.0,-457.0
54.0,-137.0,-108.0,157.0,367.0,-217.0,184.0,-570.0,-436.0
44.0,-130.0,-103.0,158.0,439.0,-256.0,158.0,-557.0,-416.0
42.0,-133.0,-96.0,143.0,485.0,-278.0,135.0,-555.0,-382.0
28.0,-134.0,-86.0,124.0,504.0,-286.0,109.0,-562.0,-338.0
26.0,-135.0,-78.0,114.0,492.0,-285.0,80.0,-575.0,-318.0
18.0,-138.0,-78.0,120.0,451.0,-276.0,66.0,-575.0,-296.0
13.0,-139.0,-75.0,143.0,389.0,-267.0,41.0,-576.0,-304.0
7.0,-138.0,-71.0,174.0,313.0,-263.0,20.0,-567.0,-319.0
1.0,-138.0,-82.0,202.0,234.0,-261.0,-13.0,-565.0,-337.0
-7.0,-132.0,-91.0,225.0,157.0,-259.0,-43.0,-558.0,-354.0
-21.0,-133.0,-94.0,243.0,88.0,-254.0,-84.0,-553.0,-377.0
-25.0,-131.0,-101.0,251.0,21.0,-252.0,-109.0,-541.0,-397.0
-33.0,-129.0,-103.0,251.0,-41.0,-250.0,-129.0,-544.0,-416.0
-33.0,-129.0,-112.0,237.0,-100.0,-249.0,-140.0,-550.0,-439.0
-32.0,-131.0,-115.0,213.0,-152.0,-248.0,-140.0,-558.0,-470.0
-35.0,-136.0,-122.0,182.0,-196.0,-246.0,-145.0,-564.0,-487.0
-37.0,-136.0,-127.0,147.0,-228.0,-244.0,-152.0,-574.0,-497.0
-33.0,-141.0,-127.0,114.0,-253.0,-242.0,-146.0,-582.0,-509.0
-28.0,-145.0,-127.0,87.0,-272.0,-241.0,-132.0,-599.0,-513.0
-27.0,-143.0,-131.0,65.0,-286.0,-242.0,-113.0,-603.0,-522.0
-22.0,-146.0,-139.0,48.0,-302.0,-242.0,-97.0,-615.0,-535.0
-14.0,-151.0,-138.0,28.0,-323.0,-242.0,-70.0,-621.0,-560.0
-5.0,-154.0,-143.0,5.0,-347.0,-244.0,-34.0,-638.0,-570.0
2.0,-158.0,-142.0,-10.0,-362.0,-248.0,-2.0,-660.0,-578.0
11.0,-169.0,-143.0,-13.0,-372.0,-258.0,27.0,-692.0,-567.0
16.0,-174.0,-139.0,2.0,-378.0,-270.0,71.0,-708.0,-562.0
24.0,-180.0,-137.0,34.0,-383.0,-290.0,90.0,-741.0,-558.0
27.0,-185.0,-136.0,84.0,-389.0,-312.0,99.0,-755.0,-541.0
27.0,-190.0,-132.0,143.0,-397.0,-334.0,104.0,-764.0,-525.0
32.0,-188.0,-125.0,214.0,-409.0,-354.0,109.0,-774.0,-500.0
32.0,-187.0,-124.0,283.0,-422.0,-373.0,106.0,-761.0,-495.0
33.0,-182.0,-125.0,353.0,-430.0,-392.0,109.0,-740.0,-491.0
31.0,-172.0,-123.0,388.0,-433.0,-410.0,110.0,-711.0,-492.0
30.0,-165.0,-127.0,399.0,-435.0,-424.0,101.0,-677.0,-506.0
22.0,-152.0,-135.0,385.0,-434.0,-442.0,81.0,-630.0,-537.0
20.0,-137.0,-147.0,352.0,-434.0,-458.0,63.0,-576.0,-591.0
11.0,-122.0,-165.0,310.0,-438.0,-474.0,40.0,-518.0,-652.0
4.0,-112.0,-184.0,259.0,-445.0,-487.0,14.0,-471.0,-728.0
1.0,-105.0,-196.0,203.0,-454.0,-498.0,-3.0,-439.0,-790.0
-6.0,-99.0,-211.0,150.0,-466.0,-506.0,-13.0,-413.0,-848.0
-9.0,-95.0,-218.0,103.0,-476.0,-510.0,-25.0,-419.0,-875.0
-2.0,-111.0,-207.0,69.0,-484.0,-514.0,-23.0,-447.0,-866.0
0.0,-122.0,-200.0,47.0,-491.0,-523.0,-11.0,-491.0,-829.0
4.0,-136.0,-190.0,39.0,-496.0,-540.0,6.0,-557.0,-756.0
5.0,-152.0,-175.0,43.0,-497.0,-567.0,13.0,-641.0,-683.0
11.0,-171.0,-160.0,58.0,-497.0,-605.0,39.0,-700.0,-641.0
12.0,-190.0,-154.0,80.0,-488.0,-659.0,42.0,-770.0,-621.0
14.0,-197.0,-158.0,105.0,-470.0,-719.0,37.0,-811.0,-631.0
15.0,-201.0,-163.0,126.0,-441.0,-775.0,36.0,-830.0,-685.0
14.0,-212.0,-182.0,135.0,-393.0,-829.0,38.0,-875.0,-724.0
15.0,-219.0,-193.0,137.0,-345.0,-873.0,43.0,-895.0,-772.0
26.0,-216.0,-205.0,129.0,-311.0,-895.0,74.0,-898.0,-812.0
26.0,-212.0,-211.0,120.0,-290.0,-905.0,94.0,-870.0,-858.0
28.0,-200.0,-222.0,107.0,-287.0,-904.0,111.0,-825.0,-898.0
33.0,-187.0,-227.0,90.0,-296.0,-890.0,129.0,-773.0,-924.0
36.0,-175.0,-224.0,70.0,-312.0,-862.0,134.0,-718.0,-923.0
39.0,-161.0,-219.0,54.0,-355.0,-820.0,150.0,-676.0,-905.0
42.0,-156.0,-223.0,40.0,-414.0,-778.0,165.0,-635.0,-890.0
50.0,-150.0,-216.0,24.0,-484.0,-740.0,180.0,-608.0,-873.0
48.0,-151.0,-212.0,3.0,-553.0,-715.0,186.0,-605.0,-855.0
47.0,-154.0,-209.0,-19.0,-608.0,-708.0,180.0,-630.0,-846.0
44.0,-159.0,-205.0,-38.0,-645.0,-716.0,166.0,-650.0,-837.0
41.0,-168.0,-196.0,-54.0,-659.0,-741.0,150.0,-680.0,-832.0
33.0,-172.0,-202.0,-69.0,-655.0,-767.0,129.0,-702.0,-824.0
31.0,-175.0,-201.0,-82.0,-642.0,-794.0,118.0,-712.0,-815.0
25.0,-176.0,-197.0,-89.0,-616.0,-823.0,88.0,-721.0,-806.0
16.0,-176.0,-197.0,-86.0,-577.0,-849.0,48.0,-715.0,-797.0
8.0,-173.0,-195.0,-81.0,-531.0,-866.0,23.0,-709.0,-791.0
7.0,-170.0,-194.0,-83.0,-475.0,-883.0,6.0,-694.0,-779.0
3.0,-163.0,-194.0,-99.0,-413.0,-893.0,11.0,-682.0,-792.0
8.0,-166.0,-193.0,-126.0,-352.0,-901.0,14.0,-676.0,-787.0
7.0,-163.0,-193.0,-159.0,-302.0,-902.0,29.0,-667.0,-781.0
14.0,-160.0,-185.0,-190.0,-268.0,-901.0,43.0,-653.0,-746.0
15.0,-152.0,-169.0,-209.0,-247.0,-897.0,61.0,-632.0,-694.0
22.0,-146.0,-156.0,-214.0,-241.0,-889.0,73.0,-605.0,-655.0
22.0,-134.0,-145.0,-212.0,-249.0,-887.0,70.0,-580.0,-601.0
16.0,-135.0,-135.0,-208.0,-267.0,-892.0,54.0,-543.0,-553.0
9.0,-127.0,-124.0,-200.0,-292.0,-900.0,35.0,-525.0,-491.0
9.0,-125.0,-105.0,-189.0,-314.0,-911.0,24.0,-508.0,-443.0
8.0,-121.0,-98.0,-166.0,-332.0,-928.0,16.0,-497.0,-392.0
5.0,-120.0,-87.0,-130.0,-336.0,-946.0,0.0,-495.0,-352.0
4.0,-118.0,-84.0,-80.0,-335.0,-965.0,-4.0,-476.0,-325.0
3.0,-115.0,-79.0,-23.0,-324.0,-982.0,-1.0,-463.0,-318.0
5.0,-109.0,-79.0,32.0,-310.0,-996.0,6.0,-444.0,-314.0
13.0,-106.0,-81.0,83.0,-291.0,-1003.0,23.0,-436.0,-317.0
14.0,-105.0,-82.0,135.0,-264.0,-1015.0,31.0,-432.0,-329.0
12.0,-103.0,-86.0,194.0,-241.0,-1026.0,41.0,-433.0,-351.0
14.0,-105.0,-90.0,257.0,-222.0,-1044.0,45.0,-438.0,-346.0
17.0,-108.0,-92.0,320.0,-207.0,-1062.0,45.0,-438.0,-347.0
13.0,-109.0,-90.0,383.0,-193.0,-1079.0,39.0,-449.0,-346.0
20.0,-112.0,-82.0,449.0,-176.0,-1088.0,40.0,-463.0,-341.0
16.0,-116.0,-77.0,522.0,-160.0,-1088.0,44.0,-472.0,-321.0
16.0,-120.0,-77.0,604.0,-155.0,-1078.0,51.0,-485.0,-292.0
17.0,-124.0,-68.0,696.0,-167.0,-1059.0,60.0,-501.0,-269.0
14.0,-126.0,-67.0,790.0,-191.0,-1026.0,59.0,-515.0,-255.0
17.0,-130.0,-60.0,873.0,-230.0,-990.0,59.0,-525.0,-234.0
13.0,-127.0,-55.0,941.0,-279.0,-952.0,45.0,-526.0,-216.0
10.0,-123.0,-52.0,989.0,-344.0,-923.0,34.0,-511.0,-202.0
7.0,-120.0,-47.0,1020.0,-402.0,-903.0,32.0,-505.0,-174.0
7.0,-115.0,-42.0,1029.0,-457.0,-895.0,10.0,-476.0,-155.0
0.0,-104.0,-41.0,1021.0,-503.0,-892.0,-4.0,-451.0,-147.0
2.0,-97.0,-41.0,1007.0,-528.0,-890.0,-7.0,-415.0,-145.0
1.0,-90.0,-39.0,992.0,-524.0,-890.0,-22.0,-370.0,-147.0
4.0,-76.0,-41.0,981.0,-493.0,-884.0,-12.0,-341.0,-143.0
4.0,-72.0,-41.0,975.0,-446.0,-870.0,-1.0,-301.0,-145.0
12.0,-65.0,-41.0,972.0,-384.0,-854.0,16.0,-287.0,-139.0
14.0,-64.0,-39.0,969.0,-315.0,-840.0,28.0,-291.0,-134.0
17.0,-65.0,-26.0,962.0,-247.0,-834.0,33.0,-271.0,-107.0
19.0,-66.0,-22.0,955.0,-180.0,-840.0,35.0,-279.0,-88.0
19.0,-63.0,-21.0,944.0,-118.0,-857.0,48.0,-278.0,-62.0
17.0,-62.0,-14.0,935.0,-58.0,-881.0,42.0,-264.0,-44.0
27.0,-70.0,-8.0,934.0,-9.0,-901.0,68.0,-286.0,-25.0
25.0,-79.0,1.0,942.0,46.0,-922.0,61.0,-312.0,2.0
26.0,-88.0,1.0,960.0,89.0,-956.0,78.0,-361.0,9.0
28.0,-97.0,1.0,981.0,129.0,-985.0,86.0,-415.0,14.0
32.0,-109.0,5.0,994.0,171.0,-1007.0,99.0,-454.0,30.0
39.0,-120.0,8.0,994.0,216.0,-1008.0,107.0,-473.0,45.0
41.0,-121.0,16.0,984.0,268.0,-1008.0,117.0,-498.0,62.0
46.0,-122.0,19.0,979.0,313.0,-991.0,138.0,-507.0,72.0
49.0,-126.0,20.0,978.0,348.0,-953.0,164.0,-529.0,85.0
41.0,-118.0,29.0,987.0,369.0,-905.0,130.0,-480.0,132.0
40.0,-116.0,34.0,1011.0,366.0,-880.0,128.0,-478.0,137.0
40.0,-123.0,36.0,1038.0,358.0,-851.0,122.0,-497.0,156.0
12.0,-110.0,56.0,1059.0,354.0,-807.0,30.0,-460.0,231.0
22.0,-120.0,53.0,1068.0,353.0,-796.0,62.0,-504.0,243.0
33.0,-120.0,62.0,1062.0,359.0,-772.0,99.0,-525.0,270.0
29.0,-124.0,69.0,1026.0,380.0,-744.0,58.0,-535.0,292.0
33.0,-132.0,67.0,974.0,404.0,-729.0,89.0,-564.0,298.0
34.0,-131.0,69.0,915.0,436.0,-675.0,91.0,-565.0,304.0
36.0,-138.0,73.0,832.0,491.0,-653.0,106.0,-598.0,319.0
57.0,-144.0,66.0,742.0,551.0,-611.0,169.0,-612.0,291.0
45.0,-153.0,64.0,644.0,631.0,-543.0,141.0,-638.0,271.0
78.0,-187.0,53.0,575.0,706.0,-483.0,254.0,-748.0,221.0
71.0,-219.0,42.0,589.0,781.0,-346.0,241.0,-890.0,193.0
105.0,-254.0,14.0,741.0,862.0,-248.0,383.0,-995.0,68.0
103.0,-302.0,-10.0,1086.0,934.0,-124.0,372.0,-1136.0,1.0
157.0,-358.0,-21.0,1610.0,1014.0,-91.0,529.0,-1344.0,-25.0
159.0,-356.0,-19.0,2252.0,1134.0,-36.0,575.0,-1385.0,-54.0
182.0,-393.0,-34.0,2913.0,1297.0,-94.0,684.0,-1512.0,-122.0
212.0,-438.0,-89.0,3588.0,1389.0,-137.0,854.0,-1702.0,-295.0
206.0,-480.0,-139.0,4198.0,1408.0,-120.0,822.0,-1879.0,-498.0
200.0,-505.0,-177.0,4669.0,1346.0,-156.0,828.0,-2073.0,-679.0
174.0,-524.0,-186.0,4897.0,1203.0,-172.0,719.0,-2156.0,-731.0
132.0,-524.0,-195.0,4806.0,1022.0,-121.0,553.0,-2184.0,-785.0
112.0,-552.0,-195.0,4438.0,906.0,-129.0,441.0,-2284.0,-775.0
105.0,-618.0,-180.0,3961.0,823.0,-100.0,416.0,-2492.0,-714.0
141.0,-697.0,-145.0,3526.0,795.0,-91.0,489.0,-2840.0,-562.0
237.0,-774.0,-123.0,3238.0,808.0,-86.0,1007.0,-3196.0,-463.0
354.0,-873.0,-109.0,3142.0,885.0,-92.0,1450.0,-3534.0,-412.0
465.0,-947.0,-139.0,3251.0,1015.0,-177.0,1886.0,-3814.0,-509.0
599.0,-1009.0,-166.0,3513.0,1194.0,-256.0,2363.0,-4038.0,-611.0
726.0,-1079.0,-155.0,3782.0,1416.0,-366.0,2839.0,-4332.0,-596.0
846.0,-1114.0,-114.0,3878.0,1678.0,-509.0,3344.0,-4531.0,-384.0
884.0,-1121.0,-30.0,3718.0,1962.0,-723.0,3556.0,-4594.0,-55.0
882.0,-1081.0,27.0,3340.0,2106.0,-1076.0,3573.0,-4451.0,154.0
822.0,-1005.0,35.0,2802.0,2055.0,-1384.0,3482.0,-4144.0,244.0
658.0,-950.0,25.0,2156.0,1871.0,-1586.0,2611.0,-3912.0,145.0
459.0,-848.0,-16.0,1453.0,1639.0,-1901.0,1856.0,-3484.0,-19.0
250.0,-738.0,-32.0,933.0,1432.0,-2129.0,1042.0,-3021.0,-108.0
97.0,-611.0,-34.0,668.0,1337.0,-2327.0,449.0,-2512.0,-107.0
-43.0,-499.0,-25.0,690.0,1397.0,-2467.0,-101.0,-2063.0,-86.0
-101.0,-424.0,-27.0,939.0,1496.0,-2535.0,-422.0,-1676.0,-71.0
-129.0,-356.0,-23.0,1303.0,1546.0,-2579.0,-520.0,-1410.0,-60.0
-141.0,-294.0,-12.0,1742.0,1555.0,-2639.0,-550.0,-1176.0,-39.0
-142.0,-246.0,4.0,2199.0,1508.0,-2616.0,-580.0,-976.0,14.0
-134.0,-209.0,4.0,2615.0,1392.0,-2530.0,-579.0,-857.0,36.0
-110.0,-183.0,-3.0,2980.0,1248.0,-2416.0,-458.0,-718.0,6.0
-69.0,-138.0,-9.0,3265.0,1138.0,-2248.0,-266.0,-558.0,-23.0
-35.0,-107.0,-9.0,3436.0,1029.0,-2064.0,-137.0,-432.0,-22.0
5.0,-69.0,-13.0,3524.0,908.0,-1878.0,18.0,-315.0,-18.0
38.0,-49.0,-14.0,3524.0,756.0,-1702.0,151.0,-227.0,-32.0
54.0,-34.0,-12.0,3451.0,600.0,-1568.0,207.0,-175.0,-29.0
67.0,-33.0,2.0,3320.0,442.0,-1451.0,256.0,-158.0,31.0
73.0,-47.0,28.0,3171.0,308.0,-1346.0,257.0,-210.0,114.0
66.0,-56.0,52.0,3017.0,236.0,-1271.0,241.0,-249.0,215.0
65.0,-62.0,65.0,2859.0,214.0,-1228.0,216.0,-286.0,285.0
58.0,-71.0,79.0,2688.0,225.0,-1211.0,187.0,-318.0,329.0
52.0,-82.0,87.0,2547.0,244.0,-1195.0,164.0,-369.0,375.0
22.0,-95.0,89.0,2399.0,233.0,-1207.0,55.0,-407.0,379.0
12.0,-101.0,91.0,2263.0,209.0,-1183.0,27.0,-438.0,396.0
16.0,-125.0,95.0,2160.0,196.0,-1135.0,25.0,-508.0,385.0
14.0,-138.0,79.0,2084.0,184.0,-1078.0,18.0,-582.0,336.0
18.0,-152.0,69.0,2032.0,182.0,-1014.0,40.0,-631.0,292.0
19.0,-163.0,70.0,2012.0,193.0,-951.0,42.0,-667.0,295.0
30.0,-167.0,77.0,2019.0,212.0,-863.0,77.0,-697.0,313.0
43.0,-171.0,88.0,2039.0,229.0,-760.0,119.0,-705.0,382.0
53.0,-182.0,111.0,2094.0,248.0,-669.0,153.0,-732.0,469.0
55.0,-181.0,110.0,2188.0,265.0,-609.0,175.0,-743.0,485.0
46.0,-177.0,112.0,2278.0,263.0,-578.0,149.0,-741.0,467.0
30.0,-167.0,113.0,2347.0,232.0,-548.0,98.0,-705.0,476.0
21.0,-166.0,126.0,2397.0,161.0,-517.0,55.0,-671.0,520.0
4.0,-152.0,140.0,2454.0,54.0,-498.0,3.0,-638.0,559.0
2.0,-149.0,143.0,2520.0,-60.0,-504.0,-13.0,-619.0,602.0
1.0,-143.0,157.0,2583.0,-151.0,-528.0,-17.0,-601.0,655.0
5.0,-137.0,166.0,2633.0,-215.0,-560.0,-8.0,-577.0,693.0
9.0,-128.0,166.0,2668.0,-276.0,-589.0,16.0,-537.0,710.0
33.0,-121.0,165.0,2692.0,-356.0,-606.0,80.0,-487.0,681.0
57.0,-103.0,157.0,2705.0,-441.0,-618.0,179.0,-443.0,664.0
95.0,-94.0,154.0,2718.0,-531.0,-625.0,312.0,-391.0,641.0
124.0,-82.0,157.0,2746.0,-609.0,-634.0,453.0,-338.0,653.0
155.0,-77.0,162.0,2797.0,-650.0,-649.0,576.0,-309.0,671.0
193.0,-65.0,157.0,2856.0,-652.0,-659.0,690.0,-273.0,656.0
227.0,-57.0,162.0,2900.0,-616.0,-671.0,824.0,-238.0,641.0
255.0,-42.0,148.0,2923.0,-540.0,-678.0,941.0,-199.0,627.0
262.0,-31.0,145.0,2926.0,-442.0,-680.0,1004.0,-142.0,612.0
271.0,-19.0,145.0,2910.0,-352.0,-684.0,1033.0,-90.0,623.0
278.0,-2.0,153.0,2889.0,-290.0,-697.0,1068.0,-50.0,632.0
272.0,3.0,156.0,2867.0,-253.0,-718.0,1069.0,-16.0,665.0
261.0,1.0,161.0,2846.0,-241.0,-745.0,988.0,14.0,652.0
247.0,11.0,151.0,2824.0,-252.0,-767.0,933.0,37.0,628.0
227.0,23.0,141.0,2802.0,-279.0,-783.0,882.0,70.0,612.0
226.0,29.0,151.0,2793.0,-303.0,-794.0,856.0,97.0,612.0
227.0,38.0,153.0,2801.0,-321.0,-793.0,850.0,118.0,642.0
224.0,37.0,160.0,2818.0,-339.0,-779.0,847.0,139.0,676.0
216.0,53.0,160.0,2818.0,-364.0,-754.0,812.0,191.0,671.0
205.0,77.0,147.0,2778.0,-407.0,-715.0,785.0,268.0,619.0
193.0,92.0,138.0,2695.0,-434.0,-663.0,732.0,343.0,569.0
188.0,110.0,139.0,2592.0,-439.0,-605.0,710.0,397.0,570.0
189.0,118.0,147.0,2491.0,-430.0,-541.0,689.0,445.0,595.0
178.0,130.0,159.0,2394.0,-422.0,-463.0,659.0,490.0,636.0
184.0,130.0,160.0,2307.0,-435.0,-367.0,681.0,491.0,660.0
197.0,129.0,163.0,2229.0,-474.0,-262.0,751.0,501.0,695.0
234.0,135.0,162.0,2167.0,-525.0,-153.0,874.0,502.0,682.0
246.0,138.0,160.0,2106.0,-541.0,-49.0,924.0,525.0,666.0
256.0,151.0,159.0,2032.0,-523.0,55.0,972.0,571.0,662.0
275.0,170.0,177.0,1922.0,-478.0,151.0,1027.0,629.0,707.0
284.0,184.0,191.0,1773.0,-435.0,237.0,1069.0,681.0,770.0
296.0,193.0,203.0,1587.0,-402.0,317.0,1125.0,736.0,837.0
323.0,196.0,207.0,1371.0,-370.0,395.0,1229.0,748.0,866.0
345.0,191.0,214.0,1156.0,-331.0,468.0,1331.0,722.0,872.0
354.0,176.0,202.0,972.0,-287.0,539.0,1354.0,671.0,835.0
341.0,161.0,188.0,826.0,-255.0,594.0,1314.0,624.0,777.0
328.0,151.0,178.0,704.0,-235.0,638.0,1264.0,564.0,742.0
316.0,128.0,174.0,609.0,-212.0,657.0,1190.0,488.0,716.0
293.0,107.0,177.0,543.0,-175.0,672.0,1118.0,423.0,704.0
260.0,89.0,166.0,494.0,-117.0,695.0,995.0,336.0,700.0
235.0,66.0,173.0,453.0,-52.0,712.0,897.0,249.0,697.0
210.0,51.0,169.0,416.0,21.0,719.0,777.0,170.0,694.0
181.0,33.0,163.0,385.0,92.0,733.0,672.0,105.0,665.0
166.0,15.0,153.0,376.0,160.0,740.0,597.0,56.0,639.0
145.0,6.0,145.0,379.0,222.0,735.0,537.0,13.0,610.0
136.0,0.0,144.0,386.0,270.0,725.0,504.0,-19.0,616.0
130.0,-4.0,143.0,396.0,291.0,707.0,486.0,-35.0,617.0
131.0,-11.0,155.0,404.0,289.0,688.0,486.0,-61.0,643.0
132.0,-11.0,163.0,398.0,271.0,667.0,486.0,-59.0,668.0
131.0,-1.0,162.0,369.0,246.0,641.0,491.0,-40.0,677.0
135.0,2.0,169.0,307.0,225.0,601.0,494.0,-10.0,697.0
136.0,10.0,178.0,211.0,199.0,558.0,505.0,17.0,729.0
142.0,23.0,170.0,100.0,182.0,520.0,514.0,59.0,709.0
146.0,26.0,164.0,-21.0,183.0,491.0,527.0,73.0,661.0
146.0,30.0,145.0,-136.0,205.0,467.0,525.0,87.0,607.0
144.0,31.0,133.0,-220.0,232.0,445.0,527.0,114.0,556.0
142.0,40.0,120.0,-265.0,256.0,418.0,519.0,145.0,504.0
141.0,55.0,112.0,-282.0,273.0,387.0,515.0,188.0,464.0
142.0,63.0,115.0,-290.0,286.0,357.0,521.0,237.0,459.0
150.0,77.0,119.0,-298.0,293.0,329.0,551.0,257.0,467.0
143.0,78.0,112.0,-312.0,308.0,303.0,541.0,289.0,460.0
169.0,81.0,120.0,-341.0,329.0,292.0,629.0,317.0,490.0
198.0,88.0,130.0,-383.0,337.0,267.0,742.0,326.0,524.0
226.0,89.0,139.0,-433.0,351.0,242.0,845.0,328.0,567.0
253.0,90.0,154.0,-489.0,366.0,226.0,943.0,333.0,615.0
271.0,88.0,157.0,-548.0,370.0,220.0,1037.0,322.0,651.0
287.0,79.0,162.0,-603.0,376.0,234.0,1105.0,306.0,672.0
280.0,71.0,158.0,-650.0,387.0,258.0,1091.0,270.0,653.0
270.0,64.0,158.0,-680.0,391.0,289.0,1037.0,249.0,642.0
266.0,63.0,153.0,-693.0,379.0,314.0,1023.0,221.0,647.0
263.0,48.0,163.0,-687.0,346.0,328.0,1020.0,180.0,651.0
267.0,40.0,157.0,-665.0,315.0,331.0,1015.0,147.0,667.0
275.0,29.0,168.0,-639.0,296.0,319.0,1038.0,116.0,707.0
289.0,24.0,183.0,-603.0,292.0,291.0,1112.0,85.0,756.0
300.0,18.0,188.0,-558.0,308.0,252.0,1142.0,58.0,778.0
297.0,11.0,183.0,-510.0,359.0,213.0,1132.0,33.0,771.0
278.0,4.0,179.0,-466.0,441.0,192.0,1049.0,7.0,744.0
240.0,-5.0,168.0,-433.0,542.0,188.0,904.0,-19.0,694.0
189.0,-14.0,163.0,-419.0,628.0,203.0,724.0,-63.0,676.0
156.0,-25.0,166.0,-407.0,661.0,223.0,576.0,-112.0,684.0
132.0,-44.0,173.0,-384.0,634.0,219.0,485.0,-187.0,721.0
120.0,-63.0,187.0,-347.0,575.0,178.0,443.0,-266.0,768.0
119.0,-74.0,197.0,-298.0,525.0,112.0,434.0,-340.0,813.0
126.0,-102.0,204.0,-247.0,510.0,38.0,440.0,-411.0,854.0
128.0,-112.0,208.0,-199.0,538.0,-35.0,453.0,-474.0,872.0
133.0,-125.0,211.0,-166.0,601.0,-101.0,474.0,-515.0,882.0
138.0,-130.0,216.0,-157.0,669.0,-168.0,495.0,-546.0,894.0
142.0,-134.0,221.0,-167.0,728.0,-233.0,517.0,-564.0,912.0
147.0,-136.0,224.0,-198.0,765.0,-298.0,535.0,-591.0,921.0
145.0,-143.0,223.0,-256.0,772.0,-358.0,530.0,-618.0,921.0
143.0,-151.0,216.0,-330.0,739.0,-416.0,531.0,-635.0,916.0
144.0,-153.0,213.0,-402.0,667.0,-461.0,546.0,-643.0,891.0
147.0,-156.0,204.0,-453.0,578.0,-488.0,542.0,-643.0,858.0
143.0,-146.0,198.0,-476.0,493.0,-492.0,554.0,-630.0,838.0
148.0,-146.0,194.0,-475.0,416.0,-480.0,552.0,-612.0,808.0
148.0,-138.0,187.0,-448.0,342.0,-454.0,555.0,-572.0,782.0
148.0,-128.0,185.0,-413.0,277.0,-416.0,563.0,-538.0,771.0
151.0,-118.0,186.0,-379.0,223.0,-373.0,561.0,-499.0,780.0
155.0,-119.0,189.0,-350.0,181.0,-326.0,567.0,-471.0,782.0
152.0,-110.0,190.0,-330.0,154.0,-281.0,556.0,-451.0,774.0
147.0,-101.0,188.0,-321.0,146.0,-238.0,536.0,-434.0,778.0
140.0,-102.0,188.0,-328.0,150.0,-199.0,505.0,-420.0,773.0
132.0,-98.0,187.0,-342.0,159.0,-167.0,461.0,-407.0,768.0
123.0,-93.0,180.0,-357.0,170.0,-139.0,434.0,-397.0,773.0
123.0,-96.0,186.0,-366.0,178.0,-115.0,421.0,-397.0,769.0
117.0,-94.0,180.0,-366.0,188.0,-93.0,407.0,-397.0,763.0
114.0,-93.0,185.0,-354.0,201.0,-77.0,391.0,-385.0,758.0
110.0,-89.0,184.0,-330.0,212.0,-60.0,384.0,-387.0,763.0
115.0,-92.0,187.0,-298.0,212.0,-43.0,403.0,-390.0,759.0
120.0,-97.0,181.0,-259.0,202.0,-28.0,418.0,-394.0,751.0
125.0,-98.0,178.0,-215.0,191.0,-14.0,439.0,-405.0,731.0
128.0,-101.0,173.0,-162.0,179.0,-1.0,453.0,-411.0,729.0
128.0,-101.0,172.0,-123.0,161.0,18.0,476.0,-431.0,709.0
132.0,-102.0,169.0,-88.0,142.0,36.0,486.0,-435.0,684.0
138.0,-102.0,162.0,-61.0,121.0,55.0,493.0,-442.0,670.0
133.0,-102.0,156.0,-46.0,94.0,71.0,506.0,-449.0,657.0
146.0,-106.0,156.0,-43.0,61.0,83.0,540.0,-450.0,646.0
151.0,-107.0,155.0,-53.0,28.0,96.0,557.0,-452.0,645.0
157.0,-108.0,159.0,-67.0,13.0,106.0,575.0,-461.0,654.0
155.0,-113.0,155.0,-81.0,11.0,109.0,585.0,-470.0,645.0
155.0,-115.0,158.0,-93.0,11.0,103.0,570.0,-479.0,652.0
154.0,-121.0,158.0,-99.0,10.0,90.0,566.0,-498.0,659.0
156.0,-127.0,163.0,-100.0,13.0,78.0,559.0,-508.0,656.0
149.0,-126.0,160.0,-95.0,20.0,65.0,564.0,-518.0,666.0
152.0,-126.0,162.0,-89.0,33.0,58.0,572.0,-523.0,675.0
160.0,-128.0,165.0,-83.0,46.0,52.0,584.0,-522.0,672.0
159.0,-128.0,169.0,-74.0,60.0,48.0,586.0,-528.0,690.0
163.0,-124.0,168.0,-65.0,69.0,51.0,593.0,-513.0,689.0
166.0,-123.0,168.0,-57.0,70.0,56.0,612.0,-511.0,692.0
166.0,-123.0,166.0,-46.0,66.0,59.0,613.0,-495.0,696.0
168.0,-116.0,167.0,-33.0,60.0,65.0,620.0,-485.0,692.0
169.0,-115.0,166.0,-17.0,52.0,67.0,628.0,-470.0,689.0
172.0,-109.0,165.0,0.0,45.0,65.0,634.0,-464.0,692.0
173.0,-110.0,166.0,19.0,41.0,64.0,634.0,-451.0,683.0
172.0,-102.0,168.0,41.0,42.0,67.0,640.0,-434.0,686.0
168.0,-104.0,167.0,61.0,44.0,68.0,629.0,-427.0,686.0
168.0,-100.0,168.0,76.0,47.0,66.0,627.0,-419.0,688.0
169.0,-96.0,165.0,90.0,50.0,64.0,617.0,-408.0,698.0
164.0,-96.0,171.0,101.0,51.0,62.0,615.0,-402.0,702.0
163.0,-95.0,175.0,110.0,53.0,64.0,608.0,-402.0,711.0
162.0,-96.0,172.0,120.0,53.0,65.0,600.0,-397.0,720.0
163.0,-94.0,173.0,127.0,50.0,66.0,607.0,-400.0,716.0
162.0,-95.0,174.0,131.0,47.0,64.0,607.0,-400.0,717.0
161.0,-92.0,177.0,135.0,45.0,66.0,611.0,-392.0,728.0
167.0,-95.0,178.0,136.0,42.0,64.0,610.0,-389.0,730.0
170.0,-95.0,176.0,136.0,38.0,62.0,616.0,-389.0,732.0
167.0,-96.0,173.0,135.0,38.0,57.0,619.0,-386.0,728.0
169.0,-97.0,174.0,133.0,40.0,53.0,626.0,-390.0,723.0
170.0,-92.0,173.0,132.0,48.0,47.0,626.0,-388.0,711.0
169.0,-92.0,174.0,134.0,58.0,43.0,617.0,-383.0,712.0
170.0,-93.0,174.0,140.0,65.0,41.0,624.0,-385.0,715.0
164.0,-89.0,179.0,149.0,66.0,36.0,625.0,-370.0,734.0
169.0,-88.0,177.0,154.0,61.0,31.0,628.0,-364.0,747.0
169.0,-84.0,182.0,157.0,55.0,25.0,628.0,-365.0,740.0
168.0,-83.0,177.0,159.0,49.0,18.0,631.0,-357.0,748.0
173.0,-83.0,180.0,161.0,42.0,12.0,635.0,-353.0,735.0
174.0,-83.0,183.0,161.0,37.0,11.0,632.0,-342.0,748.0
171.0,-78.0,179.0,163.0,33.0,11.0,632.0,-338.0,747.0
162.0,-77.0,175.0,164.0,27.0,13.0,630.0,-327.0,754.0
171.0,-74.0,186.0,163.0,24.0,12.0,631.0,-311.0,763.0
169.0,-72.0,183.0,159.0,22.0,12.0,633.0,-308.0,767.0
171.0,-71.0,180.0,154.0,21.0,13.0,628.0,-298.0,765.0
171.0,-67.0,184.0,148.0,25.0,9.0,630.0,-291.0,766.0
169.0,-64.0,191.0,138.0,32.0,1.0,627.0,-282.0,774.0
167.0,-65.0,188.0,129.0,42.0,-4.0,623.0,-283.0,782.0
167.0,-65.0,189.0,121.0,54.0,-11.0,615.0,-281.0,779.0
163.0,-65.0,188.0,112.0,65.0,-17.0,610.0,-275.0,772.0
164.0,-64.0,182.0,106.0,72.0,-25.0,604.0,-279.0,772.0
166.0,-64.0,189.0,104.0,79.0,-30.0,606.0,-278.0,771.0
159.0,-56.0,176.0,108.0,85.0,-34.0,605.0,-268.0,764.0
163.0,-64.0,185.0,115.0,85.0,-38.0,604.0,-271.0,767.0
160.0,-61.0,191.0,125.0,83.0,-43.0,602.0,-271.0,769.0
165.0,-64.0,188.0,135.0,79.0,-48.0,609.0,-255.0,771.0
165.0,-61.0,186.0,146.0,77.0,-51.0,605.0,-258.0,788.0
164.0,-62.0,192.0,152.0,73.0,-53.0,606.0,-256.0,782.0
162.0,-63.0,193.0,155.0,70.0,-56.0,603.0,-262.0,784.0
161.0,-59.0,192.0,155.0,66.0,-63.0,609.0,-263.0,783.0
158.0,-59.0,188.0,155.0,64.0,-68.0,600.0,-260.0,784.0
162.0,-60.0,189.0,153.0,70.0,-70.0,601.0,-252.0,786.0
158.0,-56.0,191.0,152.0,78.0,-70.0,593.0,-248.0,782.0
159.0,-60.0,192.0,150.0,84.0,-70.0,604.0,-245.0,785.0
165.0,-59.0,194.0,151.0,91.0,-65.0,602.0,-249.0,795.0
166.0,-59.0,196.0,153.0,96.0,-61.0,602.0,-249.0,806.0
161.0,-60.0,195.0,157.0,96.0,-58.0,602.0,-247.0,807.0
162.0,-60.0,195.0,160.0,94.0,-55.0,600.0,-251.0,812.0
158.0,-58.0,196.0,166.0,95.0,-48.0,595.0,-250.0,807.0
161.0,-58.0,191.0,172.0,93.0,-47.0,597.0,-240.0,796.0
156.0,-56.0,192.0,175.0,95.0,-42.0,583.0,-237.0,794.0
160.0,-51.0,190.0,175.0,97.0,-38.0,578.0,-234.0,778.0
161.0,-58.0,190.0,175.0,101.0,-33.0,583.0,-239.0,770.0
156.0,-52.0,188.0,174.0,106.0,-28.0,584.0,-233.0,773.0
158.0,-55.0,186.0,176.0,110.0,-21.0,577.0,-228.0,779.0
154.0,-54.0,189.0,173.0,113.0,-18.0,561.0,-231.0,775.0
153.0,-53.0,187.0,170.0,114.0,-13.0,562.0,-229.0,772.0
153.0,-53.0,185.0,166.0,115.0,-11.0,557.0,-227.0,775.0
150.0,-53.0,188.0,163.0,117.0,-10.0,557.0,-226.0,779.0
150.0,-50.0,190.0,162.0,118.0,-8.0,553.0,-224.0,784.0
150.0,-51.0,188.0,162.0,119.0,-8.0,557.0,-219.0,795.0
151.0,-50.0,192.0,161.0,119.0,-7.0,556.0,-225.0,796.0
154.0,-55.0,195.0,158.0,117.0,-6.0,554.0,-221.0,795.0
155.0,-55.0,194.0,153.0,118.0,-4.0,560.0,-221.0,803.0
155.0,-50.0,195.0,147.0,117.0,-2.0,564.0,-217.0,810.0
150.0,-49.0,194.0,140.0,117.0,-2.0,572.0,-218.0,812.0
158.0,-51.0,203.0,135.0,114.0,2.0,566.0,-222.0,809.0
154.0,-53.0,196.0,131.0,112.0,5.0,565.0,-226.0,806.0
153.0,-47.0,195.0,130.0,109.0,10.0,561.0,-222.0,802.0
152.0,-52.0,194.0,128.0,108.0,13.0,562.0,-226.0,804.0
153.0,-53.0,192.0,124.0,106.0,19.0,564.0,-221.0,808.0
151.0,-51.0,195.0,119.0,104.0,23.0,562.0,-226.0,801.0
152.0,-57.0,193.0,113.0,105.0,27.0,556.0,-235.0,803.0
153.0,-59.0,194.0,106.0,107.0,31.0,562.0,-234.0,804.0
152.0,-58.0,195.0,97.0,111.0,32.0,558.0,-249.0,803.0
153.0,-60.0,195.0,89.0,114.0,35.0,558.0,-257.0,804.0
151.0,-63.0,187.0,83.0,119.0,36.0,556.0,-270.0,799.0
151.0,-64.0,193.0,77.0,122.0,37.0,557.0,-276.0,799.0
150.0,-70.0,192.0,73.0,121.0,40.0,553.0,-286.0,796.0
149.0,-66.0,192.0,73.0,116.0,40.0,551.0,-292.0,801.0
149.0,-69.0,192.0,75.0,110.0,42.0,545.0,-303.0,791.0
149.0,-68.0,190.0,81.0,100.0,43.0,547.0,-297.0,794.0
152.0,-73.0,190.0,87.0,90.0,47.0,547.0,-296.0,787.0
145.0,-71.0,188.0,94.0,81.0,49.0,543.0,-291.0,780.0
148.0,-69.0,191.0,102.0,71.0,52.0,552.0,-287.0,772.0
150.0,-69.0,186.0,108.0,64.0,55.0,546.0,-292.0,773.0
150.0,-67.0,189.0,114.0,59.0,56.0,544.0,-291.0,777.0
140.0,-73.0,188.0,119.0,55.0,58.0,547.0,-291.0,779.0
149.0,-66.0,190.0,121.0,54.0,58.0,538.0,-293.0,785.0
147.0,-69.0,189.0,121.0,58.0,59.0,540.0,-290.0,782.0
148.0,-67.0,190.0,118.0,63.0,61.0,542.0,-293.0,788.0
152.0,-70.0,189.0,118.0,71.0,64.0,550.0,-292.0,793.0
151.0,-68.0,190.0,119.0,81.0,67.0,547.0,-290.0,783.0
150.0,-65.0,189.0,116.0,91.0,71.0,552.0,-291.0,794.0
151.0,-66.0,194.0,109.0,98.0,76.0,550.0,-288.0,791.0
149.0,-68.0,187.0,103.0,103.0,81.0,554.0,-287.0,788.0
147.0,-68.0,194.0,94.0,101.0,81.0,548.0,-286.0,795.0
147.0,-67.0,196.0,84.0,98.0,81.0,554.0,-289.0,798.0
152.0,-67.0,199.0,73.0,96.0,80.0,547.0,-296.0,789.0
151.0,-70.0,193.0,65.0,94.0,79.0,543.0,-295.0,800.0
147.0,-69.0,195.0,61.0,91.0,76.0,540.0,-299.0,794.0
148.0,-71.0,190.0,60.0,89.0,74.0,546.0,-304.0,803.0
148.0,-76.0,192.0,62.0,88.0,73.0,544.0,-305.0,792.0
148.0,-70.0,192.0,67.0,87.0,70.0,540.0,-310.0,798.0
146.0,-72.0,193.0,73.0,89.0,67.0,547.0,-315.0,797.0
148.0,-70.0,188.0,78.0,94.0,67.0,546.0,-316.0,789.0
148.0,-73.0,189.0,81.0,96.0,66.0,544.0,-312.0,795.0
146.0,-72.0,191.0,82.0,101.0,65.0,541.0,-321.0,788.0
141.0,-78.0,190.0,81.0,101.0,64.0,545.0,-323.0,787.0
148.0,-74.0,192.0,81.0,101.0,63.0,537.0,-326.0,794.0
147.0,-76.0,191.0,78.0,99.0,62.0,538.0,-325.0,798.0
146.0,-75.0,191.0,78.0,95.0,62.0,535.0,-319.0,796.0
145.0,-71.0,191.0,76.0,87.0,63.0,541.0,-322.0,801.0
145.0,-69.0,191.0,74.0,77.0,65.0,535.0,-321.0,796.0
150.0,-75.0,189.0,74.0,73.0,64.0,541.0,-315.0,796.0
146.0,-70.0,191.0,74.0,68.0,63.0,538.0,-319.0,798.0
149.0,-71.0,194.0,75.0,68.0,62.0,547.0,-314.0,794.0
147.0,-74.0,192.0,77.0,66.0,60.0,547.0,-312.0,801.0
145.0,-73.0,191.0,80.0,67.0,60.0,550.0,-314.0,790.0
146.0,-74.0,192.0,82.0,67.0,57.0,550.0,-316.0,785.0
147.0,-72.0,189.0,82.0,69.0,56.0,548.0,-308.0,793.0
153.0,-70.0,190.0,82.0,74.0,52.0,558.0,-306.0,792.0
153.0,-73.0,191.0,80.0,78.0,46.0,557.0,-312.0,799.0
151.0,-71.0,190.0,79.0,79.0,40.0,552.0,-306.0,797.0
152.0,-69.0,192.0,78.0,81.0,35.0,555.0,-311.0,794.0
153.0,-67.0,193.0,74.0,84.0,29.0,560.0,-298.0,793.0
147.0,-66.0,191.0,67.0,83.0,25.0,552.0,-297.0,801.0
147.0,-71.0,193.0,62.0,80.0,21.0,556.0,-305.0,798.0
151.0,-70.0,193.0,56.0,77.0,17.0,556.0,-300.0,797.0
149.0,-70.0,191.0,53.0,73.0,15.0,556.0,-301.0,799.0
147.0,-75.0,192.0,50.0,70.0,16.0,547.0,-305.0,803.0
148.0,-70.0,192.0,48.0,67.0,14.0,549.0,-300.0,794.0
150.0,-71.0,192.0,45.0,63.0,12.0,553.0,-299.0,800.0
153.0,-72.0,192.0,42.0,59.0,10.0,544.0,-293.0,795.0
147.0,-68.0,192.0,43.0,55.0,10.0,551.0,-304.0,801.0
152.0,-71.0,193.0,44.0,50.0,5.0,553.0,-301.0,798.0
147.0,-66.0,190.0,47.0,48.0,2.0,551.0,-300.0,802.0
151.0,-70.0,188.0,48.0,47.0,-2.0,545.0,-306.0,797.0
146.0,-69.0,190.0,51.0,48.0,-4.0,548.0,-294.0,789.0
148.0,-67.0,189.0,53.0,49.0,-7.0,545.0,-299.0,792.0
147.0,-68.0,193.0,54.0,50.0,-11.0,545.0,-294.0,791.0
145.0,-69.0,193.0,51.0,50.0,-16.0,542.0,-294.0,797.0
150.0,-67.0,192.0,52.0,47.0,-20.0,546.0,-294.0,801.0
149.0,-65.0,193.0,52.0,48.0,-24.0,547.0,-294.0,795.0
149.0,-68.0,192.0,50.0,49.0,-25.0,541.0,-292.0,806.0
148.0,-66.0,195.0,50.0,50.0,-28.0,541.0,-290.0,796.0
149.0,-68.0,192.0,51.0,48.0,-29.0,537.0,-294.0,809.0
150.0,-67.0,197.0,51.0,46.0,-28.0,542.0,-288.0,803.0
147.0,-67.0,196.0,51.0,45.0,-31.0,545.0,-287.0,809.0
145.0,-66.0,195.0,52.0,43.0,-31.0,537.0,-292.0,808.0
145.0,-66.0,194.0,53.0,40.0,-33.0,544.0,-291.0,813.0
148.0,-69.0,197.0,52.0,39.0,-35.0,537.0,-293.0,810.0
144.0,-69.0,195.0,50.0,38.0,-39.0,544.0,-292.0,810.0
147.0,-69.0,195.0,49.0,38.0,-41.0,536.0,-292.0,809.0
146.0,-68.0,197.0,44.0,39.0,-40.0,532.0,-288.0,812.0
147.0,-71.0,197.0,37.0,41.0,-41.0,534.0,-293.0,812.0
146.0,-70.0,194.0,30.0,43.0,-41.0,535.0,-293.0,818.0
145.0,-69.0,198.0,25.0,44.0,-41.0,536.0,-290.0,805.0
146.0,-68.0,194.0,21.0,45.0,-42.0,534.0,-288.0,806.0
146.0,-66.0,193.0,16.0,45.0,-41.0,542.0,-285.0,808.0
144.0,-64.0,194.0,16.0,43.0,-40.0,538.0,-288.0,799.0
150.0,-66.0,192.0,19.0,42.0,-36.0,538.0,-278.0,805.0
148.0,-66.0,193.0,23.0,38.0,-36.0,538.0,-282.0,797.0
142.0,-61.0,189.0,27.0,33.0,-34.0,540.0,-280.0,803.0
144.0,-63.0,194.0,30.0,29.0,-31.0,539.0,-279.0,800.0
148.0,-65.0,193.0,34.0,23.0,-27.0,539.0,-281.0,803.0
144.0,-65.0,195.0,35.0,18.0,-26.0,534.0,-280.0,806.0
147.0,-68.0,195.0,36.0,17.0,-27.0,539.0,-282.0,807.0
148.0,-68.0,194.0,37.0,18.0,-24.0,535.0,-283.0,812.0
148.0,-67.0,195.0,36.0,18.0,-22.0,531.0,-283.0,809.0
144.0,-69.0,198.0,31.0,21.0,-21.0,532.0,-288.0,805.0
149.0,-68.0,193.0,26.0,25.0,-19.0,531.0,-290.0,807.0
147.0,-67.0,195.0,22.0,25.0,-16.0,526.0,-292.0,802.0
145.0,-71.0,192.0,20.0,24.0,-13.0,534.0,-289.0,806.0
145.0,-67.0,194.0,21.0,21.0,-12.0,530.0,-292.0,796.0
144.0,-68.0,193.0,22.0,19.0,-10.0,526.0,-295.0,806.0
147.0,-67.0,192.0,26.0,19.0,-11.0,527.0,-294.0,809.0
144.0,-68.0,192.0,28.0,19.0,-8.0,525.0,-296.0,802.0
144.0,-66.0,195.0,32.0,20.0,-10.0,526.0,-294.0,811.0
144.0,-68.0,194.0,35.0,23.0,-11.0,529.0,-291.0,810.0
143.0,-66.0,193.0,37.0,25.0,-7.0,526.0,-291.0,808.0
146.0,-66.0,192.0,38.0,29.0,-7.0,528.0,-287.0,813.0
145.0,-68.0,193.0,37.0,30.0,-5.0,530.0,-290.0,814.0
146.0,-68.0,195.0,36.0,31.0,-5.0,530.0,-288.0,808.0
147.0,-66.0,193.0,33.0,32.0,-3.0,532.0,-289.0,809.0
141.0,-63.0,193.0,30.0,34.0,-2.0,537.0,-292.0,805.0
147.0,-67.0,195.0,26.0,34.0,-1.0,535.0,-284.0,803.0
148.0,-64.0,192.0,23.0,35.0,-1.0,533.0,-281.0,800.0
147.0,-64.0,192.0,18.0,34.0,-1.0,537.0,-283.0,801.0
147.0,-65.0,192.0,15.0,35.0,0.0,530.0,-282.0,793.0
146.0,-65.0,192.0,13.0,35.0,0.0,537.0,-278.0,801.0
146.0,-66.0,192.0,13.0,35.0,2.0,536.0,-280.0,799.0
143.0,-66.0,198.0,12.0,37.0,4.0,532.0,-280.0,794.0
145.0,-66.0,193.0,13.0,38.0,4.0,531.0,-281.0,805.0
144.0,-66.0,195.0,15.0,39.0,4.0,534.0,-283.0,801.0
144.0,-67.0,194.0,16.0,40.0,3.0,537.0,-283.0,809.0
144.0,-65.0,192.0,16.0,39.0,-1.0,530.0,-285.0,807.0
144.0,-67.0,193.0,17.0,41.0,-1.0,532.0,-282.0,804.0
147.0,-65.0,191.0,16.0,43.0,-3.0,536.0,-285.0,804.0
148.0,-66.0,195.0,15.0,47.0,-2.0,527.0,-286.0,805.0
145.0,-67.0,195.0,11.0,49.0,-1.0,530.0,-291.0,804.0
147.0,-67.0,197.0,10.0,49.0,-1.0,532.0,-291.0,807.0
149.0,-67.0,195.0,8.0,46.0,-2.0,531.0,-293.0,808.0
145.0,-67.0,195.0,6.0,41.0,-3.0,529.0,-299.0,808.0
143.0,-67.0,194.0,5.0,39.0,-4.0,528.0,-298.0,805.0
145.0,-66.0,189.0,5.0,38.0,-3.0,531.0,-301.0,800.0
146.0,-69.0,192.0,3.0,35.0,-4.0,527.0,-296.0,808.0
146.0,-74.0,196.0,5.0,33.0,-4.0,529.0,-302.0,799.0
143.0,-66.0,197.0,5.0,34.0,-4.0,528.0,-310.0,799.0
146.0,-71.0,192.0,6.0,32.0,-3.0,528.0,-308.0,803.0
144.0,-69.0,194.0,7.0,32.0,-3.0,526.0,-305.0,802.0
145.0,-70.0,193.0,7.0,33.0,-1.0,526.0,-301.0,803.0
144.0,-71.0,194.0,8.0,33.0,-1.0,523.0,-305.0,797.0
150.0,-71.0,193.0,10.0,35.0,-1.0,526.0,-302.0,795.0
144.0,-71.0,194.0,12.0,35.0,0.0,521.0,-309.0,795.0
145.0,-71.0,193.0,13.0,35.0,0.0,525.0,-309.0,797.0
147.0,-75.0,189.0,16.0,31.0,0.0,526.0,-305.0,802.0
144.0,-69.0,191.0,20.0,29.0,-1.0,521.0,-299.0,803.0
144.0,-73.0,196.0,21.0,28.0,2.0,528.0,-301.0,799.0
143.0,-68.0,192.0,21.0,28.0,2.0,525.0,-300.0,804.0
147.0,-74.0,192.0,21.0,27.0,0.0,526.0,-302.0,808.0
146.0,-69.0,196.0,23.0,26.0,-2.0,526.0,-301.0,804.0
144.0,-70.0,193.0,22.0,25.0,-2.0,529.0,-298.0,797.0
145.0,-70.0,193.0,20.0,24.0,-2.0,532.0,-308.0,802.0
144.0,-73.0,195.0,19.0,24.0,-5.0,538.0,-309.0,812.0
147.0,-70.0,198.0,17.0,25.0,-8.0,528.0,-310.0,810.0
146.0,-70.0,193.0,14.0,29.0,-9.0,526.0,-307.0,800.0
148.0,-73.0,195.0,11.0,33.0,-10.0,529.0,-309.0,804.0
147.0,-72.0,198.0,11.0,38.0,-12.0,528.0,-311.0,806.0
146.0,-73.0,193.0,10.0,39.0,-11.0,525.0,-306.0,805.0
146.0,-72.0,194.0,10.0,40.0,-12.0,526.0,-305.0,804.0
144.0,-72.0,197.0,14.0,38.0,-10.0,527.0,-314.0,804.0
143.0,-70.0,192.0,16.0,35.0,-11.0,533.0,-309.0,806.0
146.0,-71.0,192.0,20.0,33.0,-9.0,528.0,-309.0,799.0
147.0,-74.0,191.0,23.0,31.0,-9.0,528.0,-305.0,803.0
148.0,-73.0,197.0,24.0,28.0,-7.0,524.0,-311.0,801.0
145.0,-74.0,189.0,26.0,27.0,-7.0,526.0,-306.0,804.0
147.0,-74.0,192.0,26.0,25.0,-9.0,527.0,-312.0,807.0
147.0,-73.0,197.0,30.0,24.0,-8.0,522.0,-311.0,806.0
145.0,-72.0,193.0,30.0,24.0,-8.0,526.0,-317.0,807.0
143.0,-73.0,193.0,32.0,24.0,-10.0,524.0,-311.0,804.0
146.0,-72.0,193.0,33.0,26.0,-9.0,527.0,-317.0,805.0
143.0,-73.0,195.0,35.0,25.0,-11.0,528.0,-315.0,807.0
145.0,-71.0,194.0,38.0,25.0,-11.0,528.0,-321.0,805.0
148.0,-74.0,194.0,39.0,24.0,-13.0,526.0,-317.0,805.0
146.0,-72.0,193.0,41.0,24.0,-12.0,529.0,-316.0,796.0
146.0,-76.0,193.0,45.0,24.0,-12.0,527.0,-314.0,798.0
142.0,-70.0,196.0,49.0,25.0,-12.0,524.0,-312.0,796.0
144.0,-72.0,191.0,53.0,26.0,-11.0,525.0,-315.0,799.0
141.0,-69.0,195.0,54.0,26.0,-10.0,524.0,-305.0,799.0
146.0,-70.0,189.0,56.0,23.0,-10.0,524.0,-302.0,800.0
146.0,-72.0,192.0,59.0,21.0,-9.0,524.0,-305.0,801.0
144.0,-67.0,195.0,61.0,20.0,-10.0,523.0,-306.0,804.0
144.0,-72.0,192.0,62.0,19.0,-10.0,529.0,-305.0,797.0
145.0,-73.0,193.0,66.0,19.0,-9.0,525.0,-312.0,799.0
145.0,-70.0,192.0,68.0,18.0,-10.0,525.0,-306.0,798.0
146.0,-71.0,192.0,71.0,16.0,-7.0,527.0,-305.0,797.0
145.0,-71.0,192.0,73.0,15.0,-5.0,526.0,-304.0,798.0
144.0,-71.0,191.0,75.0,15.0,-4.0,526.0,-305.0,797.0
145.0,-71.0,193.0,78.0,14.0,-4.0,526.0,-306.0,798.0
143.0,-73.0,192.0,79.0,15.0,-5.0,530.0,-302.0,794.0
137.0,-67.0,188.0,80.0,15.0,-3.0,525.0,-305.0,799.0
147.0,-67.0,190.0,81.0,17.0,-2.0,530.0,-304.0,795.0
147.0,-71.0,195.0,83.0,17.0,-3.0,524.0,-303.0,802.0
147.0,-72.0,192.0,86.0,20.0,-4.0,526.0,-304.0,798.0
144.0,-71.0,193.0,89.0,21.0,-2.0,525.0,-301.0,798.0
145.0,-69.0,189.0,93.0,21.0,0.0,524.0,-305.0,805.0
144.0,-70.0,192.0,95.0,20.0,0.0,526.0,-302.0,806.0
145.0,-70.0,194.0,96.0,19.0,1.0,526.0,-304.0,806.0
143.0,-68.0,193.0,98.0,20.0,2.0,526.0,-300.0,808.0
143.0,-74.0,194.0,98.0,20.0,2.0,524.0,-305.0,809.0
145.0,-72.0,197.0,100.0,21.0,2.0,528.0,-306.0,808.0
143.0,-69.0,198.0,99.0,20.0,1.0,524.0,-300.0,807.0
143.0,-69.0,195.0,98.0,21.0,2.0,522.0,-305.0,804.0
146.0,-70.0,194.0,97.0,21.0,2.0,523.0,-303.0,807.0
141.0,-70.0,193.0,97.0,22.0,3.0,523.0,-302.0,807.0
145.0,-69.0,195.0,97.0,20.0,4.0,527.0,-301.0,810.0
144.0,-70.0,195.0,96.0,18.0,4.0,526.0,-299.0,798.0
147.0,-69.0,194.0,98.0,16.0,3.0,522.0,-297.0,806.0
144.0,-66.0,193.0,99.0,13.0,2.0,524.0,-296.0,805.0
146.0,-72.0,192.0,99.0,11.0,3.0,523.0,-298.0,805.0
143.0,-70.0,197.0,98.0,11.0,2.0,526.0,-300.0,801.0
143.0,-71.0,195.0,97.0,13.0,-1.0,523.0,-297.0,806.0
144.0,-68.0,196.0,96.0,19.0,-1.0,525.0,-298.0,804.0
144.0,-65.0,194.0,91.0,22.0,1.0,525.0,-293.0,808.0
146.0,-68.0,193.0,89.0,24.0,2.0,531.0,-300.0,807.0
143.0,-68.0,196.0,87.0,26.0,0.0,526.0,-294.0,809.0
144.0,-66.0,195.0,85.0,27.0,1.0,520.0,-292.0,809.0
144.0,-69.0,194.0,84.0,28.0,4.0,529.0,-299.0,808.0
145.0,-68.0,196.0,85.0,27.0,5.0,522.0,-293.0,806.0
142.0,-66.0,197.0,86.0,26.0,4.0,526.0,-286.0,811.0
141.0,-69.0,193.0,86.0,23.0,7.0,528.0,-295.0,817.0
142.0,-66.0,196.0,85.0,22.0,5.0,525.0,-302.0,815.0
148.0,-69.0,201.0,82.0,20.0,6.0,520.0,-296.0,818.0
142.0,-70.0,195.0,79.0,19.0,5.0,517.0,-300.0,821.0
137.0,-74.0,205.0,76.0,19.0,5.0,526.0,-305.0,822.0
140.0,-67.0,194.0,72.0,17.0,5.0,527.0,-303.0,810.0
145.0,-70.0,196.0,74.0,14.0,6.0,523.0,-302.0,808.0
144.0,-70.0,196.0,74.0,10.0,6.0,526.0,-309.0,808.0
146.0,-69.0,194.0,77.0,4.0,4.0,532.0,-308.0,805.0
143.0,-69.0,190.0,80.0,0.0,6.0,528.0,-310.0,801.0
145.0,-74.0,194.0,85.0,-2.0,4.0,530.0,-305.0,797.0
141.0,-69.0,194.0,89.0,-2.0,5.0,526.0,-311.0,805.0
143.0,-72.0,195.0,93.0,-2.0,6.0,521.0,-309.0,807.0
142.0,-69.0,193.0,95.0,0.0,6.0,521.0,-302.0,806.0
146.0,-75.0,199.0,97.0,1.0,6.0,521.0,-299.0,809.0
141.0,-68.0,196.0,98.0,4.0,7.0,523.0,-304.0,808.0
142.0,-68.0,191.0,96.0,5.0,9.0,522.0,-299.0,810.0
141.0,-68.0,195.0,94.0,10.0,8.0,520.0,-298.0,809.0
144.0,-67.0,193.0,91.0,12.0,9.0,526.0,-295.0,805.0
145.0,-66.0,195.0,88.0,13.0,9.0,523.0,-292.0,811.0
143.0,-66.0,192.0,85.0,12.0,10.0,524.0,-290.0,814.0
145.0,-68.0,196.0,81.0,11.0,6.0,523.0,-290.0,807.0
146.0,-70.0,198.0,80.0,10.0,5.0,526.0,-287.0,812.0
146.0,-68.0,193.0,77.0,12.0,4.0,523.0,-289.0,809.0
140.0,-71.0,192.0,80.0,12.0,3.0,528.0,-286.0,809.0
143.0,-66.0,194.0,81.0,13.0,2.0,528.0,-292.0,805.0
143.0,-70.0,194.0,82.0,14.0,1.0,526.0,-289.0,805.0
146.0,-64.0,197.0,81.0,17.0,0.0,524.0,-289.0,809.0
141.0,-64.0,196.0,83.0,19.0,-1.0,527.0,-290.0,805.0
143.0,-67.0,196.0,83.0,22.0,1.0,526.0,-292.0,810.0
145.0,-66.0,199.0,84.0,23.0,0.0,520.0,-293.0,816.0
144.0,-70.0,195.0,84.0,21.0,2.0,526.0,-290.0,812.0
143.0,-67.0,193.0,85.0,20.0,4.0,527.0,-292.0,807.0
147.0,-70.0,195.0,84.0,20.0,6.0,528.0,-293.0,803.0
150.0,-68.0,195.0,83.0,20.0,8.0,528.0,-294.0,805.0
149.0,-65.0,197.0,85.0,19.0,8.0,525.0,-293.0,805.0
144.0,-65.0,194.0,85.0,17.0,10.0,528.0,-294.0,808.0
143.0,-68.0,190.0,85.0,16.0,10.0,526.0,-293.0,802.0
145.0,-71.0,195.0,89.0,13.0,10.0,525.0,-292.0,804.0
144.0,-66.0,195.0,92.0,12.0,8.0,521.0,-292.0,806.0
144.0,-70.0,196.0,95.0,12.0,8.0,522.0,-298.0,812.0
144.0,-71.0,195.0,98.0,11.0,7.0,518.0,-294.0,803.0
144.0,-69.0,194.0,99.0,12.0,5.0,522.0,-298.0,814.0
143.0,-67.0,194.0,99.0,14.0,4.0,526.0,-301.0,807.0
143.0,-68.0,197.0,98.0,17.0,4.0,527.0,-300.0,810.0
141.0,-69.0,197.0,96.0,20.0,2.0,524.0,-294.0,815.0
144.0,-69.0,203.0,93.0,22.0,4.0,521.0,-300.0,814.0
141.0,-69.0,197.0,91.0,23.0,4.0,521.0,-307.0,813.0
143.0,-69.0,196.0,90.0,26.0,3.0,516.0,-300.0,814.0
143.0,-68.0,196.0,89.0,28.0,2.0,523.0,-296.0,809.0
142.0,-67.0,193.0,88.0,29.0,4.0,516.0,-292.0,802.0
144.0,-67.0,197.0,85.0,29.0,4.0,523.0,-297.0,815.0
142.0,-66.0,194.0,85.0,28.0,3.0,522.0,-295.0,806.0
142.0,-67.0,193.0,84.0,24.0,4.0,519.0,-289.0,804.0
143.0,-70.0,194.0,84.0,21.0,4.0,524.0,-293.0,805.0
143.0,-68.0,191.0,86.0,18.0,4.0,528.0,-294.0,808.0
143.0,-66.0,192.0,87.0,13.0,4.0,523.0,-293.0,806.0
138.0,-70.0,192.0,86.0,11.0,3.0,522.0,-289.0,810.0
147.0,-68.0,193.0,85.0,11.0,3.0,522.0,-292.0,814.0
142.0,-70.0,195.0,84.0,11.0,3.0,521.0,-297.0,806.0
145.0,-68.0,198.0,84.0,14.0,5.0,521.0,-291.0,808.0
144.0,-68.0,194.0,82.0,16.0,1.0,521.0,-292.0,811.0
143.0,-66.0,192.0,80.0,20.0,0.0,524.0,-293.0,814.0
142.0,-66.0,194.0,78.0,22.0,-1.0,526.0,-293.0,815.0
145.0,-67.0,196.0,74.0,24.0,-1.0,520.0,-292.0,811.0
140.0,-66.0,198.0,71.0,26.0,0.0,523.0,-295.0,815.0
141.0,-65.0,196.0,68.0,26.0,0.0,520.0,-290.0,812.0
145.0,-69.0,203.0,65.0,27.0,-1.0,520.0,-287.0,817.0
137.0,-67.0,197.0,63.0,28.0,-1.0,524.0,-296.0,812.0
143.0,-66.0,198.0,62.0,26.0,0.0,521.0,-291.0,808.0
144.0,-66.0,195.0,62.0,25.0,-1.0,521.0,-286.0,818.0
144.0,-68.0,194.0,63.0,22.0,-2.0,520.0,-291.0,811.0
143.0,-65.0,195.0,63.0,20.0,-2.0,518.0,-290.0,809.0
143.0,-68.0,197.0,64.0,19.0,-4.0,519.0,-292.0,812.0
146.0,-70.0,195.0,67.0,18.0,-3.0,519.0,-290.0,807.0
143.0,-70.0,195.0,68.0,17.0,-3.0,517.0,-291.0,806.0
143.0,-66.0,194.0,69.0,18.0,-3.0,517.0,-288.0,807.0
145.0,-69.0,200.0,69.0,18.0,-2.0,516.0,-294.0,808.0
139.0,-66.0,199.0,69.0,18.0,-1.0,520.0,-283.0,812.0
142.0,-70.0,199.0,67.0,17.0,0.0,518.0,-290.0,817.0
144.0,-70.0,198.0,66.0,16.0,-1.0,518.0,-293.0,818.0
143.0,-67.0,195.0,66.0,14.0,-4.0,524.0,-295.0,815.0
147.0,-69.0,198.0,63.0,15.0,-6.0,519.0,-295.0,819.0
143.0,-68.0,196.0,60.0,16.0,-5.0,521.0,-290.0,814.0
141.0,-68.0,197.0,58.0,20.0,-5.0,523.0,-290.0,823.0
143.0,-66.0,196.0,55.0,21.0,-5.0,516.0,-286.0,814.0
144.0,-65.0,196.0,55.0,22.0,-7.0,519.0,-288.0,817.0
143.0,-66.0,194.0,54.0,22.0,-6.0,524.0,-287.0,816.0
140.0,-65.0,194.0,54.0,22.0,-7.0,516.0,-286.0,813.0
141.0,-65.0,195.0,54.0,21.0,-6.0,513.0,-286.0,811.0
144.0,-70.0,193.0,56.0,20.0,-5.0,521.0,-286.0,811.0
144.0,-67.0,196.0,58.0,16.0,-3.0,524.0,-288.0,810.0
142.0,-67.0,196.0,59.0,14.0,-4.0,526.0,-286.0,812.0
144.0,-68.0,192.0,60.0,9.0,-6.0,523.0,-289.0,811.0
146.0,-68.0,195.0,62.0,7.0,-5.0,519.0,-289.0,811.0
141.0,-68.0,193.0,64.0,5.0,-4.0,522.0,-290.0,807.0
142.0,-65.0,194.0,66.0,3.0,-3.0,516.0,-288.0,808.0
144.0,-69.0,197.0,66.0,3.0,-5.0,523.0,-291.0,813.0
140.0,-70.0,200.0,67.0,5.0,-5.0,515.0,-289.0,816.0
144.0,-65.0,195.0,65.0,4.0,-4.0,520.0,-289.0,817.0
142.0,-69.0,201.0,64.0,7.0,-8.0,521.0,-290.0,815.0
145.0,-68.0,197.0,64.0,12.0,-7.0,520.0,-290.0,817.0
143.0,-65.0,200.0,63.0,18.0,-7.0,521.0,-286.0,819.0
144.0,-68.0,195.0,61.0,21.0,-7.0,522.0,-292.0,818.0
143.0,-67.0,197.0,61.0,23.0,-6.0,523.0,-290.0,822.0
144.0,-69.0,195.0,62.0,21.0,-5.0,519.0,-292.0,811.0
143.0,-64.0,196.0,63.0,18.0,-6.0,517.0,-289.0,812.0
145.0,-67.0,194.0,65.0,16.0,-6.0,519.0,-285.0,812.0
141.0,-64.0,190.0,66.0,13.0,-7.0,523.0,-289.0,819.0
142.0,-66.0,195.0,70.0,10.0,-7.0,518.0,-296.0,816.0
142.0,-67.0,196.0,70.0,8.0,-6.0,519.0,-288.0,818.0
140.0,-70.0,192.0,71.0,7.0,-7.0,519.0,-291.0,814.0
141.0,-66.0,198.0,71.0,8.0,-4.0,518.0,-288.0,810.0
144.0,-67.0,196.0,71.0,6.0,-5.0,518.0,-292.0,816.0
142.0,-70.0,195.0,71.0,7.0,-7.0,518.0,-300.0,820.0
142.0,-69.0,196.0,69.0,6.0,-5.0,518.0,-291.0,816.0
142.0,-69.0,199.0,68.0,7.0,-5.0,521.0,-291.0,818.0
143.0,-69.0,198.0,66.0,7.0,-5.0,522.0,-294.0,818.0
144.0,-68.0,193.0,65.0,7.0,-7.0,518.0,-291.0,815.0
142.0,-65.0,197.0,64.0,7.0,-7.0,516.0,-290.0,811.0
147.0,-68.0,199.0,62.0,6.0,-9.0,520.0,-289.0,813.0
141.0,-67.0,193.0,61.0,8.0,-9.0,515.0,-291.0,810.0
140.0,-66.0,193.0,62.0,11.0,-10.0,523.0,-295.0,819.0
145.0,-70.0,194.0,63.0,13.0,-11.0,515.0,-294.0,810.0
143.0,-64.0,195.0,64.0,16.0,-10.0,521.0,-285.0,820.0
145.0,-67.0,196.0,64.0,18.0,-10.0,518.0,-286.0,819.0
144.0,-66.0,196.0,63.0,20.0,-10.0,524.0,-291.0,813.0
146.0,-66.0,193.0,62.0,20.0,-10.0,521.0,-289.0,815.0
145.0,-66.0,194.0,60.0,20.0,-10.0,522.0,-286.0,810.0
143.0,-65.0,195.0,60.0,19.0,-7.0,523.0,-286.0,817.0
144.0,-66.0,201.0,59.0,19.0,-7.0,521.0,-288.0,816.0
144.0,-70.0,202.0,60.0,17.0,-5.0,521.0,-287.0,820.0
142.0,-68.0,202.0,60.0,14.0,-6.0,526.0,-287.0,820.0
140.0,-67.0,194.0,60.0,11.0,-8.0,521.0,-290.0,827.0
144.0,-66.0,199.0,58.0,7.0,-6.0,520.0,-288.0,812.0
145.0,-66.0,196.0,56.0,7.0,-7.0,520.0,-292.0,818.0
146.0,-69.0,197.0,56.0,9.0,-5.0,521.0,-288.0,813.0
142.0,-67.0,193.0,55.0,10.0,-3.0,522.0,-289.0,810.0
144.0,-69.0,197.0,56.0,12.0,-3.0,521.0,-294.0,802.0
143.0,-67.0,196.0,58.0,12.0,-2.0,520.0,-295.0,804.0
144.0,-68.0,195.0,63.0,12.0,-2.0,523.0,-296.0,805.0
148.0,-70.0,193.0,69.0,10.0,-2.0,527.0,-297.0,802.0
143.0,-65.0,191.0,76.0,7.0,-1.0,523.0,-297.0,809.0
145.0,-68.0,197.0,84.0,4.0,-1.0,528.0,-297.0,807.0
144.0,-72.0,198.0,90.0,1.0,-1.0,517.0,-292.0,808.0
143.0,-68.0,195.0,92.0,-1.0,-1.0,519.0,-285.0,811.0
143.0,-66.0,196.0,93.0,-1.0,1.0,521.0,-291.0,816.0
142.0,-65.0,196.0,91.0,-2.0,0.0,515.0,-290.0,812.0
142.0,-69.0,193.0,88.0,-1.0,1.0,517.0,-287.0,820.0
142.0,-66.0,194.0,84.0,4.0,-1.0,518.0,-289.0,812.0
143.0,-68.0,194.0,78.0,6.0,-1.0,519.0,-289.0,823.0
142.0,-67.0,196.0,73.0,9.0,-3.0,520.0,-286.0,817.0
143.0,-70.0,199.0,69.0,12.0,-3.0,522.0,-290.0,821.0
145.0,-67.0,194.0,66.0,12.0,-5.0,518.0,-286.0,808.0
143.0,-67.0,198.0,65.0,14.0,-6.0,526.0,-285.0,816.0
143.0,-71.0,193.0,66.0,15.0,-7.0,523.0,-283.0,808.0
144.0,-64.0,198.0,66.0,16.0,-6.0,523.0,-284.0,818.0
146.0,-66.0,195.0,68.0,17.0,-6.0,528.0,-285.0,809.0
143.0,-65.0,198.0,71.0,17.0,-7.0,520.0,-285.0,806.0
144.0,-65.0,195.0,75.0,19.0,-8.0,523.0,-280.0,813.0
143.0,-64.0,197.0,77.0,18.0,-6.0,521.0,-281.0,812.0
144.0,-65.0,195.0,78.0,18.0,-7.0,522.0,-283.0,815.0
143.0,-65.0,196.0,77.0,20.0,-5.0,523.0,-283.0,818.0
142.0,-64.0,197.0,77.0,20.0,-6.0,524.0,-282.0,809.0
142.0,-67.0,194.0,75.0,18.0,-7.0,522.0,-280.0,812.0
144.0,-66.0,195.0,73.0,20.0,-8.0,522.0,-285.0,811.0
144.0,-62.0,195.0,70.0,19.0,-8.0,520.0,-281.0,812.0
142.0,-66.0,197.0,65.0,19.0,-8.0,519.0,-277.0,815.0
144.0,-65.0,194.0,62.0,19.0,-7.0,525.0,-285.0,814.0
142.0,-68.0,194.0,58.0,21.0,-8.0,523.0,-288.0,816.0
142.0,-66.0,197.0,57.0,21.0,-6.0,519.0,-283.0,828.0
143.0,-65.0,197.0,58.0,21.0,-5.0,515.0,-285.0,815.0
144.0,-69.0,194.0,59.0,20.0,-6.0,518.0,-291.0,816.0
140.0,-66.0,197.0,59.0,21.0,-6.0,517.0,-288.0,812.0
141.0,-66.0,197.0,62.0,23.0,-3.0,519.0,-291.0,811.0
142.0,-66.0,193.0,63.0,24.0,-5.0,516.0,-290.0,809.0
143.0,-66.0,196.0,68.0,24.0,-3.0,520.0,-291.0,810.0
145.0,-69.0,192.0,72.0,23.0,-3.0,520.0,-287.0,813.0
143.0,-66.0,194.0,78.0,22.0,-4.0,518.0,-287.0,811.0
145.0,-66.0,198.0,83.0,20.0,-3.0,521.0,-291.0,810.0
140.0,-64.0,196.0,85.0,19.0,-2.0,518.0,-286.0,810.0
143.0,-67.0,197.0,88.0,19.0,-4.0,521.0,-287.0,812.0
140.0,-65.0,195.0,89.0,20.0,-5.0,514.0,-286.0,813.0
142.0,-64.0,194.0,90.0,20.0,-3.0,518.0,-284.0,814.0
144.0,-69.0,197.0,92.0,19.0,-4.0,523.0,-285.0,818.0
140.0,-65.0,195.0,91.0,21.0,-3.0,516.0,-281.0,818.0
139.0,-64.0,198.0,90.0,22.0,-2.0,513.0,-280.0,816.0
137.0,-63.0,198.0,85.0,21.0,-1.0,523.0,-285.0,820.0
136.0,-66.0,199.0,82.0,21.0,-2.0,517.0,-283.0,818.0
141.0,-64.0,197.0,79.0,20.0,-2.0,518.0,-277.0,818.0
142.0,-66.0,195.0,73.0,22.0,-1.0,517.0,-280.0,826.0
141.0,-63.0,199.0,67.0,24.0,-1.0,516.0,-284.0,814.0
142.0,-64.0,198.0,61.0,27.0,-2.0,511.0,-281.0,811.0
143.0,-67.0,199.0,57.0,28.0,-4.0,516.0,-284.0,815.0
141.0,-66.0,195.0,54.0,29.0,-3.0,520.0,-285.0,818.0
145.0,-66.0,202.0,54.0,27.0,-2.0,516.0,-286.0,819.0
144.0,-67.0,197.0,52.0,27.0,-2.0,519.0,-287.0,827.0
141.0,-65.0,198.0,51.0,24.0,-2.0,518.0,-287.0,822.0
145.0,-67.0,196.0,52.0,22.0,-2.0,521.0,-289.0,820.0
142.0,-66.0,191.0,51.0,22.0,-2.0,517.0,-286.0,821.0
141.0,-65.0,199.0,49.0,20.0,-3.0,517.0,-288.0,814.0
142.0,-68.0,199.0,47.0,20.0,-3.0,514.0,-287.0,827.0
140.0,-66.0,198.0,46.0,19.0,-5.0,515.0,-286.0,814.0
142.0,-66.0,193.0,47.0,21.0,-5.0,512.0,-291.0,815.0
144.0,-65.0,195.0,48.0,23.0,-6.0,512.0,-285.0,818.0
142.0,-64.0,197.0,47.0,23.0,-5.0,511.0,-285.0,820.0
136.0,-65.0,196.0,49.0,25.0,-5.0,513.0,-286.0,821.0
139.0,-66.0,197.0,48.0,23.0,-6.0,515.0,-282.0,821.0
142.0,-66.0,201.0,46.0,22.0,-7.0,519.0,-286.0,822.0
139.0,-65.0,197.0,46.0,20.0,-7.0,518.0,-289.0,822.0
141.0,-69.0,194.0,46.0,19.0,-7.0,518.0,-286.0,816.0
140.0,-67.0,194.0,46.0,19.0,-7.0,514.0,-286.0,818.0
143.0,-66.0,194.0,46.0,20.0,-9.0,521.0,-281.0,818.0
144.0,-67.0,199.0,47.0,20.0,-11.0,516.0,-288.0,821.0
144.0,-67.0,197.0,46.0,21.0,-13.0,514.0,-288.0,819.0
141.0,-68.0,198.0,48.0,21.0,-12.0,519.0,-288.0,821.0
140.0,-66.0,196.0,46.0,22.0,-13.0,524.0,-285.0,823.0
144.0,-68.0,198.0,47.0,20.0,-13.0,517.0,-283.0,830.0
143.0,-68.0,201.0,47.0,20.0,-12.0,516.0,-286.0,817.0
144.0,-71.0,196.0,46.0,20.0,-11.0,515.0,-287.0,823.0
145.0,-69.0,197.0,45.0,20.0,-11.0,519.0,-278.0,812.0
141.0,-64.0,195.0,43.0,19.0,-12.0,518.0,-283.0,822.0
141.0,-66.0,198.0,40.0,17.0,-12.0,515.0,-282.0,816.0
142.0,-67.0,197.0,38.0,15.0,-12.0,516.0,-289.0,818.0
142.0,-65.0,197.0,38.0,12.0,-12.0,523.0,-282.0,820.0
144.0,-67.0,196.0,39.0,11.0,-12.0,516.0,-289.0,817.0
143.0,-67.0,200.0,41.0,9.0,-13.0,519.0,-288.0,825.0
141.0,-66.0,197.0,40.0,8.0,-14.0,522.0,-284.0,816.0
145.0,-68.0,197.0,40.0,9.0,-17.0,519.0,-286.0,818.0
145.0,-68.0,202.0,39.0,13.0,-16.0,518.0,-287.0,812.0
140.0,-66.0,199.0,38.0,17.0,-15.0,519.0,-285.0,814.0
139.0,-64.0,193.0,37.0,21.0,-16.0,517.0,-287.0,823.0
142.0,-67.0,197.0,36.0,23.0,-14.0,516.0,-286.0,818.0
144.0,-64.0,197.0,32.0,23.0,-16.0,517.0,-282.0,817.0
141.0,-64.0,197.0,32.0,23.0,-13.0,514.0,-287.0,823.0
145.0,-65.0,194.0,32.0,23.0,-13.0,519.0,-283.0,811.0
144.0,-65.0,195.0,33.0,22.0,-13.0,513.0,-283.0,826.0
140.0,-66.0,197.0,35.0,19.0,-11.0,515.0,-286.0,815.0
142.0,-67.0,196.0,34.0,18.0,-12.0,514.0,-285.0,815.0
142.0,-64.0,198.0,34.0,16.0,-13.0,516.0,-286.0,823.0
141.0,-63.0,197.0,36.0,16.0,-12.0,517.0,-288.0,818.0
140.0,-65.0,196.0,37.0,15.0,-14.0,518.0,-286.0,818.0
140.0,-67.0,193.0,38.0,14.0,-12.0,519.0,-286.0,821.0
140.0,-64.0,193.0,40.0,15.0,-13.0,515.0,-285.0,818.0
142.0,-67.0,197.0,41.0,15.0,-13.0,512.0,-286.0,809.0
142.0,-65.0,195.0,42.0,15.0,-11.0,510.0,-283.0,814.0
142.0,-66.0,195.0,41.0,15.0,-12.0,515.0,-285.0,810.0
143.0,-66.0,195.0,41.0,17.0,-11.0,516.0,-285.0,815.0
143.0,-67.0,197.0,41.0,18.0,-10.0,520.0,-286.0,810.0
141.0,-65.0,197.0,39.0,17.0,-11.0,517.0,-286.0,817.0
142.0,-66.0,197.0,38.0,17.0,-10.0,517.0,-286.0,814.0
143.0,-69.0,198.0,35.0,19.0,-11.0,515.0,-282.0,823.0
143.0,-67.0,198.0,35.0,17.0,-11.0,514.0,-290.0,822.0
139.0,-69.0,197.0,35.0,17.0,-10.0,514.0,-286.0,817.0
142.0,-67.0,200.0,34.0,17.0,-12.0,510.0,-286.0,824.0
142.0,-67.0,198.0,33.0,17.0,-13.0,517.0,-290.0,827.0
139.0,-67.0,195.0,32.0,17.0,-13.0,508.0,-292.0,824.0
138.0,-68.0,197.0,30.0,18.0,-14.0,510.0,-293.0,814.0
139.0,-67.0,196.0,27.0,21.0,-17.0,517.0,-291.0,818.0
139.0,-65.0,198.0,25.0,23.0,-14.0,514.0,-295.0,819.0
142.0,-71.0,196.0,25.0,26.0,-16.0,515.0,-289.0,816.0
141.0,-70.0,197.0,25.0,28.0,-14.0,518.0,-290.0,819.0
142.0,-66.0,196.0,22.0,29.0,-14.0,518.0,-287.0,821.0
146.0,-67.0,195.0,21.0,29.0,-15.0,515.0,-287.0,822.0
137.0,-66.0,193.0,19.0,27.0,-12.0,519.0,-285.0,811.0
142.0,-66.0,197.0,17.0,25.0,-13.0,518.0,-290.0,815.0
144.0,-67.0,193.0,15.0,24.0,-12.0,517.0,-284.0,824.0
141.0,-66.0,195.0,15.0,21.0,-14.0,520.0,-286.0,820.0
145.0,-67.0,196.0,13.0,20.0,-13.0,515.0,-285.0,816.0
142.0,-66.0,197.0,15.0,20.0,-14.0,520.0,-285.0,812.0
142.0,-66.0,197.0,13.0,20.0,-16.0,517.0,-283.0,811.0
141.0,-65.0,197.0,13.0,19.0,-16.0,521.0,-283.0,811.0
146.0,-66.0,198.0,11.0,22.0,-18.0,520.0,-284.0,815.0
138.0,-65.0,197.0,11.0,24.0,-19.0,515.0,-287.0,823.0
142.0,-65.0,197.0,10.0,26.0,-17.0,521.0,-290.0,813.0
140.0,-68.0,192.0,12.0,26.0,-17.0,517.0,-291.0,822.0
140.0,-66.0,199.0,14.0,26.0,-16.0,513.0,-286.0,819.0
144.0,-67.0,196.0,17.0,27.0,-15.0,512.0,-288.0,824.0
141.0,-70.0,197.0,21.0,27.0,-15.0,509.0,-288.0,823.0
139.0,-66.0,203.0,21.0,26.0,-16.0,511.0,-292.0,828.0
142.0,-68.0,196.0,20.0,27.0,-15.0,507.0,-288.0,830.0
143.0,-67.0,197.0,18.0,26.0,-17.0,511.0,-292.0,821.0
139.0,-68.0,197.0,16.0,26.0,-17.0,511.0,-294.0,816.0
142.0,-69.0,199.0,14.0,24.0,-15.0,514.0,-295.0,813.0
145.0,-68.0,194.0,14.0,22.0,-14.0,514.0,-298.0,820.0
139.0,-65.0,192.0,17.0,20.0,-12.0,520.0,-301.0,807.0
151.0,-69.0,199.0,20.0,17.0,-11.0,515.0,-298.0,810.0
144.0,-71.0,195.0,24.0,13.0,-11.0,519.0,-296.0,811.0
141.0,-69.0,195.0,28.0,9.0,-10.0,519.0,-294.0,814.0
141.0,-67.0,193.0,33.0,6.0,-9.0,514.0,-294.0,813.0
141.0,-69.0,196.0,35.0,1.0,-9.0,515.0,-297.0,809.0
140.0,-67.0,198.0,38.0,-2.0,-10.0,518.0,-294.0,812.0
140.0,-68.0,200.0,40.0,0.0,-9.0,510.0,-295.0,820.0
142.0,-70.0,194.0,42.0,2.0,-10.0,513.0,-297.0,812.0
138.0,-67.0,196.0,42.0,3.0,-10.0,510.0,-292.0,814.0
139.0,-67.0,198.0,40.0,7.0,-9.0,509.0,-293.0,814.0
138.0,-65.0,195.0,38.0,11.0,-8.0,508.0,-297.0,819.0
137.0,-65.0,193.0,36.0,13.0,-11.0,516.0,-294.0,814.0
143.0,-68.0,198.0,33.0,16.0,-15.0,519.0,-294.0,813.0
142.0,-68.0,198.0,31.0,16.0,-15.0,511.0,-292.0,816.0
145.0,-66.0,199.0,29.0,17.0,-18.0,521.0,-290.0,826.0
140.0,-66.0,196.0,29.0,15.0,-18.0,518.0,-294.0,817.0
142.0,-68.0,196.0,29.0,16.0,-22.0,520.0,-290.0,815.0
142.0,-67.0,195.0,28.0,17.0,-22.0,521.0,-288.0,812.0
139.0,-66.0,199.0,27.0,19.0,-22.0,521.0,-288.0,814.0
144.0,-68.0,194.0,27.0,20.0,-22.0,520.0,-284.0,809.0
143.0,-65.0,196.0,25.0,20.0,-21.0,519.0,-286.0,819.0
145.0,-67.0,197.0,25.0,18.0,-20.0,519.0,-290.0,813.0
143.0,-64.0,196.0,26.0,18.0,-21.0,519.0,-286.0,817.0
139.0,-65.0,196.0,26.0,18.0,-21.0,517.0,-288.0,814.0
141.0,-66.0,199.0,24.0,15.0,-19.0,519.0,-291.0,815.0
145.0,-68.0,197.0,22.0,16.0,-17.0,514.0,-292.0,819.0
139.0,-68.0,195.0,23.0,13.0,-15.0,518.0,-294.0,813.0
138.0,-69.0,197.0,23.0,14.0,-16.0,508.0,-298.0,812.0
142.0,-66.0,193.0,23.0,13.0,-17.0,515.0,-295.0,809.0
138.0,-65.0,195.0,25.0,13.0,-15.0,509.0,-296.0,818.0
135.0,-67.0,197.0,29.0,16.0,-14.0,508.0,-298.0,812.0
137.0,-68.0,194.0,32.0,18.0,-14.0,507.0,-294.0,814.0
140.0,-70.0,199.0,35.0,19.0,-15.0,508.0,-299.0,815.0
145.0,-75.0,194.0,37.0,19.0,-14.0,512.0,-294.0,814.0
141.0,-70.0,198.0,40.0,20.0,-15.0,512.0,-302.0,817.0
140.0,-69.0,198.0,40.0,22.0,-17.0,516.0,-297.0,816.0
141.0,-68.0,195.0,42.0,23.0,-14.0,513.0,-292.0,809.0
139.0,-70.0,197.0,44.0,22.0,-15.0,512.0,-299.0,814.0
143.0,-70.0,198.0,44.0,22.0,-14.0,519.0,-291.0,808.0
144.0,-71.0,195.0,45.0,20.0,-13.0,514.0,-300.0,808.0
139.0,-63.0,193.0,43.0,19.0,-14.0,514.0,-289.0,811.0
144.0,-74.0,195.0,42.0,17.0,-13.0,510.0,-292.0,810.0
143.0,-71.0,193.0,42.0,17.0,-13.0,515.0,-289.0,807.0
146.0,-70.0,192.0,44.0,16.0,-13.0,518.0,-292.0,807.0
141.0,-67.0,194.0,43.0,15.0,-11.0,512.0,-287.0,805.0
143.0,-67.0,195.0,42.0,16.0,-10.0,519.0,-293.0,807.0
140.0,-67.0,196.0,42.0,17.0,-12.0,512.0,-292.0,810.0
141.0,-67.0,200.0,41.0,17.0,-11.0,512.0,-298.0,816.0
141.0,-67.0,193.0,40.0,18.0,-10.0,520.0,-296.0,815.0
142.0,-69.0,194.0,38.0,18.0,-9.0,517.0,-296.0,819.0
140.0,-70.0,198.0,39.0,20.0,-9.0,519.0,-303.0,823.0
144.0,-73.0,198.0,39.0,22.0,-9.0,515.0,-305.0,818.0
143.0,-70.0,198.0,41.0,22.0,-12.0,519.0,-301.0,817.0
143.0,-70.0,195.0,42.0,24.0,-11.0,518.0,-297.0,813.0
142.0,-67.0,195.0,45.0,27.0,-10.0,516.0,-299.0,812.0
143.0,-71.0,195.0,47.0,25.0,-9.0,520.0,-294.0,813.0
141.0,-68.0,195.0,49.0,25.0,-10.0,517.0,-298.0,812.0
142.0,-67.0,197.0,50.0,23.0,-10.0,516.0,-296.0,813.0
144.0,-70.0,195.0,50.0,21.0,-10.0,519.0,-297.0,816.0
142.0,-70.0,194.0,52.0,21.0,-13.0,512.0,-296.0,814.0
143.0,-67.0,195.0,53.0,19.0,-12.0,517.0,-297.0,808.0
139.0,-67.0,197.0,52.0,21.0,-10.0,517.0,-298.0,807.0
141.0,-67.0,197.0,52.0,19.0,-9.0,515.0,-295.0,815.0
140.0,-69.0,193.0,53.0,18.0,-8.0,514.0,-296.0,811.0
142.0,-69.0,198.0,54.0,17.0,-7.0,511.0,-292.0,807.0
135.0,-68.0,198.0,54.0,16.0,-5.0,513.0,-290.0,813.0
146.0,-72.0,192.0,55.0,17.0,-4.0,516.0,-297.0,810.0
139.0,-68.0,196.0,55.0,16.0,-4.0,516.0,-292.0,812.0
141.0,-70.0,195.0,57.0,17.0,-5.0,513.0,-292.0,810.0
142.0,-68.0,197.0,57.0,15.0,-2.0,515.0,-296.0,813.0
141.0,-68.0,195.0,58.0,16.0,-4.0,514.0,-301.0,816.0
140.0,-68.0,197.0,58.0,17.0,-6.0,511.0,-299.0,809.0
143.0,-69.0,200.0,60.0,19.0,-6.0,515.0,-301.0,821.0
142.0,-68.0,197.0,61.0,22.0,-4.0,512.0,-297.0,817.0
140.0,-69.0,194.0,63.0,23.0,-5.0,510.0,-299.0,813.0
138.0,-65.0,196.0,64.0,24.0,-5.0,509.0,-299.0,810.0
145.0,-70.0,198.0,65.0,23.0,-5.0,508.0,-302.0,812.0
143.0,-69.0,195.0,65.0,23.0,-7.0,508.0,-298.0,817.0
140.0,-68.0,198.0,66.0,21.0,-7.0,514.0,-295.0,819.0
142.0,-68.0,199.0,68.0,19.0,-6.0,517.0,-294.0,813.0
143.0,-65.0,194.0,69.0,18.0,-5.0,509.0,-297.0,817.0
137.0,-65.0,195.0,69.0,17.0,-4.0,514.0,-294.0,808.0
141.0,-66.0,193.0,69.0,16.0,-5.0,518.0,-297.0,808.0
141.0,-69.0,196.0,70.0,16.0,-5.0,511.0,-291.0,816.0
142.0,-68.0,200.0,69.0,16.0,-5.0,509.0,-292.0,811.0
142.0,-66.0,198.0,69.0,14.0,-5.0,518.0,-290.0,808.0
141.0,-67.0,194.0,69.0,14.0,-3.0,515.0,-288.0,818.0
138.0,-68.0,193.0,69.0,13.0,-4.0,514.0,-291.0,817.0
143.0,-66.0,196.0,70.0,13.0,-5.0,513.0,-293.0,812.0
140.0,-69.0,196.0,71.0,15.0,-5.0,516.0,-288.0,815.0
137.0,-66.0,201.0,72.0,18.0,-4.0,510.0,-289.0,815.0
141.0,-68.0,196.0,72.0,20.0,-5.0,513.0,-292.0,815.0
142.0,-70.0,195.0,71.0,22.0,-4.0,516.0,-292.0,808.0
141.0,-67.0,200.0,71.0,23.0,-5.0,513.0,-295.0,814.0
140.0,-67.0,198.0,71.0,23.0,-6.0,510.0,-289.0,813.0
143.0,-67.0,196.0,70.0,24.0,-4.0,510.0,-297.0,819.0
139.0,-66.0,194.0,71.0,23.0,-6.0,516.0,-296.0,819.0
144.0,-69.0,200.0,73.0,22.0,-4.0,515.0,-292.0,824.0
139.0,-67.0,195.0,72.0,20.0,-6.0,507.0,-296.0,810.0
142.0,-69.0,197.0,73.0,17.0,-5.0,516.0,-290.0,816.0
143.0,-70.0,197.0,73.0,17.0,-5.0,514.0,-293.0,819.0
142.0,-66.0,197.0,74.0,14.0,-4.0,512.0,-291.0,818.0
141.0,-68.0,197.0,75.0,13.0,-5.0,512.0,-299.0,821.0
142.0,-69.0,197.0,76.0,11.0,-5.0,517.0,-299.0,811.0
141.0,-68.0,196.0,76.0,12.0,-5.0,515.0,-290.0,811.0
143.0,-66.0,198.0,76.0,11.0,-4.0,514.0,-295.0,811.0
141.0,-68.0,198.0,77.0,9.0,-4.0,514.0,-294.0,825.0
143.0,-66.0,199.0,77.0,11.0,-3.0,518.0,-290.0,811.0
138.0,-67.0,196.0,77.0,12.0,-4.0,515.0,-295.0,814.0
145.0,-70.0,194.0,77.0,14.0,-3.0,509.0,-287.0,809.0
141.0,-67.0,199.0,75.0,15.0,-3.0,506.0,-297.0,811.0
141.0,-66.0,197.0,75.0,18.0,-3.0,513.0,-292.0,821.0
141.0,-67.0,196.0,75.0,18.0,-5.0,512.0,-292.0,821.0
141.0,-66.0,195.0,75.0,19.0,-4.0,510.0,-294.0,814.0
139.0,-65.0,200.0,74.0,20.0,-7.0,510.0,-288.0,822.0
140.0,-64.0,204.0,73.0,21.0,-6.0,510.0,-288.0,820.0
141.0,-67.0,197.0,72.0,20.0,-4.0,512.0,-295.0,820.0
143.0,-67.0,194.0,72.0,22.0,-3.0,514.0,-296.0,820.0
139.0,-66.0,201.0,72.0,20.0,-1.0,516.0,-290.0,818.0
141.0,-71.0,199.0,72.0,18.0,-2.0,519.0,-295.0,820.0
140.0,-70.0,199.0,71.0,16.0,-1.0,515.0,-294.0,822.0
142.0,-68.0,197.0,73.0,15.0,1.0,514.0,-288.0,826.0
140.0,-65.0,195.0,73.0,14.0,-1.0,509.0,-300.0,821.0
145.0,-71.0,196.0,73.0,13.0,-1.0,513.0,-291.0,817.0
139.0,-67.0,195.0,73.0,13.0,-1.0,514.0,-294.0,817.0
143.0,-68.0,195.0,75.0,13.0,0.0,506.0,-289.0,811.0
140.0,-67.0,196.0,77.0,13.0,-1.0,513.0,-292.0,814.0
142.0,-68.0,194.0,79.0,14.0,0.0,513.0,-284.0,811.0
139.0,-67.0,198.0,80.0,16.0,-1.0,510.0,-288.0,819.0
142.0,-67.0,196.0,80.0,15.0,-1.0,509.0,-289.0,818.0
140.0,-67.0,198.0,82.0,17.0,-1.0,509.0,-292.0,815.0
138.0,-75.0,195.0,82.0,15.0,0.0,508.0,-296.0,821.0
142.0,-67.0,197.0,82.0,17.0,-1.0,515.0,-289.0,818.0
141.0,-68.0,196.0,81.0,17.0,-1.0,516.0,-288.0,817.0
143.0,-69.0,194.0,81.0,18.0,-2.0,511.0,-293.0,821.0
144.0,-70.0,196.0,79.0,17.0,-1.0,519.0,-288.0,818.0
141.0,-67.0,196.0,79.0,17.0,0.0,511.0,-288.0,823.0
139.0,-65.0,199.0,79.0,16.0,2.0,514.0,-286.0,824.0
139.0,-69.0,198.0,78.0,15.0,2.0,513.0,-290.0,821.0
141.0,-66.0,197.0,79.0,14.0,2.0,516.0,-285.0,823.0
142.0,-67.0,194.0,77.0,14.0,3.0,517.0,-290.0,821.0
142.0,-64.0,196.0,76.0,13.0,1.0,509.0,-288.0,821.0
146.0,-69.0,200.0,76.0,11.0,0.0,512.0,-287.0,815.0
139.0,-66.0,195.0,75.0,10.0,-1.0,513.0,-289.0,822.0
142.0,-71.0,197.0,75.0,11.0,0.0,509.0,-296.0,823.0
142.0,-72.0,199.0,74.0,11.0,1.0,510.0,-294.0,821.0
139.0,-66.0,196.0,76.0,12.0,-1.0,513.0,-297.0,821.0
141.0,-68.0,200.0,78.0,13.0,0.0,509.0,-298.0,820.0
142.0,-69.0,197.0,80.0,14.0,-2.0,509.0,-290.0,817.0
139.0,-68.0,195.0,82.0,15.0,-1.0,508.0,-288.0,822.0
138.0,-65.0,195.0,82.0,17.0,1.0,508.0,-292.0,813.0
140.0,-66.0,197.0,81.0,16.0,-1.0,511.0,-298.0,817.0
139.0,-69.0,201.0,78.0,17.0,-2.0,513.0,-291.0,814.0
140.0,-64.0,195.0,76.0,17.0,-2.0,513.0,-288.0,820.0
140.0,-66.0,198.0,73.0,18.0,-5.0,511.0,-285.0,821.0
142.0,-66.0,199.0,71.0,17.0,-5.0,509.0,-287.0,828.0
140.0,-66.0,198.0,68.0,18.0,-6.0,515.0,-287.0,831.0
142.0,-68.0,199.0,65.0,18.0,-8.0,510.0,-289.0,829.0
143.0,-66.0,200.0,62.0,20.0,-8.0,516.0,-285.0,834.0
141.0,-65.0,197.0,60.0,21.0,-7.0,515.0,-290.0,823.0
142.0,-65.0,201.0,58.0,21.0,-8.0,513.0,-290.0,829.0
142.0,-70.0,195.0,58.0,21.0,-8.0,519.0,-285.0,819.0
143.0,-65.0,198.0,58.0,23.0,-8.0,515.0,-288.0,825.0
139.0,-64.0,196.0,59.0,25.0,-7.0,515.0,-286.0,822.0
142.0,-66.0,198.0,61.0,24.0,-7.0,514.0,-293.0,817.0
139.0,-65.0,200.0,62.0,23.0,-8.0,510.0,-283.0,812.0
142.0,-69.0,199.0,65.0,19.0,-8.0,510.0,-286.0,820.0
140.0,-66.0,198.0,66.0,15.0,-9.0,513.0,-285.0,817.0
139.0,-69.0,197.0,66.0,14.0,-10.0,512.0,-286.0,825.0
140.0,-68.0,196.0,66.0,12.0,-12.0,509.0,-288.0,829.0
138.0,-66.0,200.0,62.0,14.0,-13.0,509.0,-290.0,823.0
140.0,-65.0,199.0,60.0,18.0,-13.0,504.0,-292.0,818.0
141.0,-65.0,197.0,58.0,20.0,-11.0,508.0,-296.0,815.0
139.0,-67.0,198.0,58.0,19.0,-11.0,513.0,-296.0,818.0
143.0,-71.0,196.0,61.0,18.0,-9.0,513.0,-292.0,821.0
141.0,-69.0,195.0,64.0,14.0,-5.0,517.0,-297.0,814.0
141.0,-67.0,196.0,71.0,12.0,-4.0,519.0,-289.0,815.0
141.0,-67.0,198.0,80.0,6.0,-1.0,508.0,-287.0,814.0
142.0,-67.0,196.0,86.0,2.0,-2.0,516.0,-288.0,816.0
141.0,-67.0,196.0,90.0,-1.0,0.0,510.0,-288.0,816.0
138.0,-66.0,196.0,92.0,-4.0,-1.0,510.0,-286.0,824.0
139.0,-66.0,204.0,95.0,-7.0,-1.0,507.0,-286.0,815.0
139.0,-67.0,200.0,95.0,-6.0,2.0,509.0,-288.0,822.0
142.0,-68.0,200.0,92.0,-3.0,1.0,507.0,-286.0,817.0
140.0,-66.0,198.0,88.0,1.0,-1.0,502.0,-286.0,820.0
137.0,-58.0,196.0,85.0,7.0,-2.0,504.0,-287.0,823.0
139.0,-66.0,197.0,83.0,13.0,-3.0,510.0,-285.0,821.0
143.0,-65.0,198.0,81.0,16.0,-4.0,510.0,-283.0,818.0
141.0,-65.0,200.0,79.0,17.0,-4.0,510.0,-280.0,823.0
141.0,-62.0,199.0,78.0,16.0,-5.0,509.0,-284.0,827.0
139.0,-65.0,197.0,77.0,19.0,-6.0,514.0,-280.0,824.0
140.0,-65.0,200.0,77.0,17.0,-5.0,514.0,-285.0,824.0
141.0,-63.0,196.0,79.0,18.0,-7.0,518.0,-285.0,815.0
143.0,-66.0,199.0,80.0,17.0,-6.0,517.0,-273.0,822.0
141.0,-65.0,197.0,80.0,17.0,-5.0,513.0,-280.0,818.0
137.0,-62.0,197.0,82.0,18.0,-4.0,514.0,-279.0,819.0
143.0,-66.0,196.0,81.0,15.0,-4.0,512.0,-280.0,819.0
140.0,-64.0,196.0,80.0,15.0,-5.0,511.0,-287.0,817.0
140.0,-67.0,198.0,79.0,13.0,-4.0,508.0,-283.0,822.0
140.0,-65.0,194.0,79.0,15.0,-3.0,512.0,-284.0,814.0
141.0,-64.0,199.0,77.0,15.0,-4.0,510.0,-288.0,816.0
140.0,-67.0,197.0,75.0,16.0,-2.0,511.0,-287.0,817.0
140.0,-64.0,195.0,73.0,15.0,-1.0,512.0,-282.0,828.0
140.0,-67.0,198.0,70.0,15.0,-3.0,510.0,-283.0,824.0
141.0,-67.0,198.0,69.0,14.0,-1.0,511.0,-284.0,832.0
141.0,-65.0,200.0,67.0,14.0,-4.0,510.0,-290.0,829.0
139.0,-64.0,201.0,68.0,15.0,-4.0,509.0,-287.0,829.0
138.0,-66.0,200.0,68.0,15.0,-2.0,507.0,-288.0,828.0
140.0,-66.0,196.0,67.0,17.0,-2.0,502.0,-282.0,821.0
140.0,-66.0,202.0,66.0,17.0,-1.0,509.0,-282.0,829.0
138.0,-65.0,197.0,65.0,17.0,-1.0,507.0,-285.0,825.0
143.0,-66.0,199.0,66.0,18.0,-1.0,507.0,-285.0,820.0
140.0,-67.0,200.0,65.0,18.0,-2.0,509.0,-286.0,827.0
138.0,-65.0,199.0,65.0,18.0,-2.0,510.0,-283.0,825.0
139.0,-62.0,197.0,68.0,18.0,-2.0,507.0,-280.0,821.0
136.0,-65.0,201.0,68.0,16.0,-3.0,506.0,-288.0,829.0
139.0,-67.0,195.0,71.0,15.0,-2.0,514.0,-286.0,822.0
137.0,-64.0,195.0,74.0,15.0,-1.0,516.0,-289.0,820.0
142.0,-58.0,196.0,74.0,14.0,0.0,512.0,-281.0,817.0
141.0,-66.0,194.0,75.0,14.0,0.0,512.0,-283.0,819.0
141.0,-65.0,196.0,78.0,12.0,2.0,509.0,-281.0,810.0
140.0,-66.0,199.0,78.0,12.0,2.0,508.0,-288.0,820.0
138.0,-63.0,195.0,78.0,12.0,2.0,511.0,-284.0,815.0
143.0,-67.0,197.0,78.0,12.0,1.0,508.0,-284.0,820.0
141.0,-64.0,195.0,76.0,13.0,0.0,507.0,-288.0,822.0
142.0,-67.0,198.0,75.0,17.0,0.0,509.0,-282.0,821.0
140.0,-65.0,199.0,72.0,21.0,-3.0,510.0,-286.0,824.0
140.0,-66.0,200.0,69.0,23.0,-1.0,514.0,-285.0,834.0
138.0,-66.0,199.0,67.0,26.0,-3.0,508.0,-281.0,818.0
143.0,-64.0,204.0,65.0,26.0,-2.0,508.0,-287.0,830.0
138.0,-64.0,198.0,64.0,25.0,-3.0,507.0,-284.0,825.0
140.0,-66.0,198.0,64.0,27.0,-5.0,517.0,-285.0,820.0
140.0,-65.0,198.0,64.0,26.0,-4.0,509.0,-285.0,823.0
135.0,-66.0,201.0,64.0,23.0,-4.0,509.0,-289.0,832.0
141.0,-65.0,196.0,61.0,20.0,-6.0,515.0,-286.0,821.0
138.0,-64.0,197.0,60.0,20.0,-5.0,508.0,-289.0,818.0
142.0,-67.0,197.0,61.0,20.0,-6.0,506.0,-281.0,830.0
143.0,-68.0,195.0,62.0,19.0,-5.0,509.0,-283.0,820.0
142.0,-66.0,201.0,64.0,19.0,-7.0,514.0,-282.0,828.0
140.0,-66.0,197.0,66.0,19.0,-7.0,507.0,-284.0,819.0
136.0,-67.0,194.0,68.0,20.0,-6.0,509.0,-281.0,819.0
141.0,-64.0,199.0,71.0,21.0,-4.0,503.0,-285.0,821.0
140.0,-65.0,198.0,73.0,22.0,-4.0,503.0,-280.0,818.0
141.0,-65.0,199.0,75.0,22.0,-3.0,504.0,-286.0,824.0
138.0,-65.0,197.0,77.0,23.0,-2.0,507.0,-284.0,822.0
136.0,-65.0,198.0,76.0,24.0,-2.0,513.0,-285.0,832.0
142.0,-67.0,203.0,74.0,22.0,-2.0,508.0,-285.0,835.0
140.0,-68.0,199.0,73.0,21.0,-1.0,506.0,-287.0,833.0
143.0,-68.0,200.0,74.0,20.0,-1.0,507.0,-289.0,839.0
143.0,-66.0,208.0,70.0,17.0,-3.0,510.0,-287.0,832.0
141.0,-74.0,197.0,70.0,16.0,-5.0,510.0,-281.0,830.0
143.0,-67.0,199.0,68.0,15.0,-5.0,511.0,-288.0,831.0
140.0,-66.0,197.0,68.0,14.0,-6.0,507.0,-283.0,826.0
139.0,-66.0,195.0,66.0,11.0,-6.0,508.0,-287.0,824.0
139.0,-68.0,199.0,67.0,10.0,-6.0,508.0,-286.0,826.0
139.0,-66.0,196.0,68.0,10.0,-7.0,505.0,-286.0,825.0
139.0,-64.0,199.0,68.0,9.0,-6.0,507.0,-282.0,822.0
138.0,-65.0,196.0,67.0,10.0,-6.0,505.0,-283.0,812.0
137.0,-63.0,201.0,67.0,10.0,-7.0,506.0,-281.0,814.0
140.0,-67.0,201.0,69.0,11.0,-6.0,507.0,-278.0,818.0
139.0,-65.0,197.0,67.0,12.0,-8.0,505.0,-283.0,815.0
143.0,-65.0,198.0,67.0,13.0,-8.0,513.0,-279.0,827.0
138.0,-65.0,200.0,69.0,11.0,-8.0,507.0,-281.0,825.0
139.0,-63.0,200.0,68.0,11.0,-7.0,507.0,-281.0,828.0
139.0,-64.0,199.0,68.0,10.0,-9.0,508.0,-277.0,824.0
137.0,-67.0,200.0,67.0,10.0,-7.0,510.0,-280.0,829.0
138.0,-65.0,198.0,66.0,10.0,-6.0,507.0,-279.0,820.0
140.0,-62.0,197.0,65.0,11.0,-6.0,514.0,-279.0,828.0
141.0,-67.0,204.0,64.0,11.0,-7.0,505.0,-276.0,829.0
140.0,-65.0,200.0,63.0,10.0,-7.0,509.0,-280.0,836.0
140.0,-64.0,198.0,62.0,10.0,-7.0,509.0,-280.0,834.0
138.0,-65.0,202.0,62.0,10.0,-7.0,508.0,-284.0,831.0
137.0,-65.0,199.0,64.0,9.0,-6.0,509.0,-286.0,831.0
139.0,-64.0,200.0,64.0,9.0,-6.0,513.0,-278.0,830.0
137.0,-64.0,198.0,65.0,11.0,-7.0,510.0,-281.0,822.0
141.0,-66.0,196.0,67.0,12.0,-7.0,509.0,-279.0,821.0
137.0,-66.0,198.0,69.0,12.0,-6.0,511.0,-281.0,826.0
140.0,-65.0,196.0,70.0,13.0,-6.0,506.0,-283.0,833.0
138.0,-65.0,195.0,74.0,14.0,-7.0,507.0,-285.0,831.0
137.0,-63.0,200.0,76.0,14.0,-8.0,510.0,-279.0,820.0
141.0,-68.0,197.0,75.0,14.0,-6.0,511.0,-277.0,821.0
143.0,-63.0,196.0,75.0,14.0,-7.0,508.0,-273.0,812.0
138.0,-64.0,201.0,76.0,13.0,-6.0,507.0,-276.0,815.0
136.0,-66.0,194.0,75.0,14.0,-5.0,507.0,-273.0,821.0
139.0,-62.0,198.0,74.0,16.0,-5.0,505.0,-275.0,821.0
139.0,-63.0,196.0,72.0,15.0,-5.0,504.0,-280.0,817.0
141.0,-65.0,204.0,71.0,14.0,-4.0,510.0,-275.0,827.0
141.0,-66.0,201.0,69.0,14.0,-4.0,510.0,-274.0,824.0
141.0,-67.0,199.0,68.0,14.0,-5.0,509.0,-278.0,831.0
138.0,-64.0,197.0,67.0,13.0,-5.0,506.0,-277.0,830.0
140.0,-64.0,199.0,70.0,13.0,-5.0,509.0,-277.0,834.0
141.0,-67.0,199.0,69.0,15.0,-5.0,506.0,-276.0,830.0
142.0,-67.0,202.0,68.0,16.0,-6.0,507.0,-279.0,833.0
140.0,-65.0,201.0,70.0,18.0,-8.0,508.0,-282.0,826.0
136.0,-65.0,194.0,70.0,19.0,-8.0,507.0,-284.0,833.0
136.0,-64.0,200.0,72.0,20.0,-5.0,510.0,-282.0,831.0
140.0,-64.0,197.0,71.0,21.0,-4.0,506.0,-283.0,830.0
139.0,-68.0,199.0,71.0,21.0,-5.0,502.0,-280.0,828.0
139.0,-66.0,201.0,71.0,21.0,-4.0,508.0,-275.0,835.0
142.0,-65.0,196.0,70.0,21.0,-6.0,507.0,-285.0,829.0
139.0,-65.0,198.0,71.0,21.0,-5.0,508.0,-285.0,830.0
141.0,-67.0,201.0,69.0,20.0,-5.0,507.0,-279.0,821.0
138.0,-62.0,204.0,69.0,21.0,-3.0,506.0,-278.0,820.0
138.0,-64.0,197.0,69.0,21.0,-3.0,506.0,-279.0,830.0
142.0,-66.0,197.0,67.0,19.0,-2.0,505.0,-275.0,826.0
140.0,-63.0,197.0,65.0,18.0,-2.0,508.0,-275.0,822.0
138.0,-64.0,196.0,64.0,19.0,-3.0,505.0,-278.0,830.0
143.0,-65.0,196.0,62.0,18.0,-2.0,508.0,-275.0,823.0
138.0,-61.0,200.0,60.0,18.0,-2.0,507.0,-271.0,826.0
141.0,-66.0,201.0,57.0,17.0,-3.0,507.0,-279.0,831.0
142.0,-63.0,201.0,57.0,19.0,-2.0,510.0,-279.0,833.0
141.0,-65.0,199.0,56.0,19.0,-2.0,510.0,-278.0,835.0
139.0,-62.0,201.0,56.0,18.0,-3.0,507.0,-277.0,828.0
140.0,-64.0,201.0,56.0,18.0,-3.0,507.0,-280.0,829.0
138.0,-65.0,197.0,56.0,19.0,-4.0,508.0,-277.0,835.0
144.0,-66.0,203.0,58.0,18.0,-4.0,509.0,-279.0,820.0
141.0,-68.0,196.0,61.0,18.0,-4.0,506.0,-282.0,826.0
137.0,-63.0,199.0,61.0,18.0,-3.0,503.0,-275.0,821.0
140.0,-64.0,204.0,62.0,17.0,-2.0,505.0,-276.0,831.0
139.0,-66.0,198.0,63.0,17.0,-4.0,508.0,-282.0,824.0
141.0,-67.0,197.0,63.0,14.0,-2.0,508.0,-277.0,838.0
140.0,-66.0,200.0,65.0,13.0,-3.0,505.0,-280.0,822.0
141.0,-63.0,200.0,65.0,14.0,-2.0,512.0,-279.0,834.0
143.0,-64.0,204.0,66.0,14.0,-3.0,513.0,-279.0,828.0
142.0,-65.0,199.0,66.0,13.0,-3.0,514.0,-283.0,829.0
136.0,-64.0,199.0,66.0,12.0,-3.0,508.0,-279.0,828.0
140.0,-62.0,197.0,65.0,15.0,-4.0,511.0,-275.0,823.0
134.0,-66.0,199.0,64.0,13.0,-3.0,508.0,-282.0,824.0
139.0,-64.0,197.0,64.0,14.0,-4.0,504.0,-279.0,823.0
142.0,-64.0,194.0,64.0,13.0,-5.0,503.0,-282.0,826.0
138.0,-64.0,202.0,63.0,13.0,-7.0,505.0,-277.0,821.0
140.0,-63.0,202.0,63.0,15.0,-7.0,506.0,-280.0,821.0
139.0,-64.0,195.0,63.0,16.0,-6.0,511.0,-279.0,823.0
138.0,-64.0,195.0,66.0,18.0,-4.0,506.0,-279.0,826.0
138.0,-63.0,198.0,66.0,18.0,-4.0,507.0,-279.0,827.0
143.0,-66.0,201.0,66.0,18.0,-4.0,507.0,-278.0,830.0
138.0,-63.0,203.0,64.0,18.0,-6.0,505.0,-286.0,832.0
139.0,-64.0,202.0,63.0,15.0,-5.0,506.0,-278.0,836.0
140.0,-67.0,202.0,63.0,12.0,-8.0,507.0,-285.0,831.0
138.0,-65.0,201.0,60.0,11.0,-8.0,509.0,-282.0,837.0
141.0,-64.0,203.0,59.0,10.0,-10.0,506.0,-281.0,829.0
141.0,-64.0,198.0,57.0,11.0,-11.0,506.0,-276.0,836.0
138.0,-64.0,200.0,53.0,12.0,-12.0,508.0,-281.0,833.0
140.0,-63.0,199.0,50.0,16.0,-11.0,509.0,-280.0,828.0
140.0,-63.0,201.0,47.0,19.0,-13.0,511.0,-277.0,829.0
140.0,-64.0,202.0,46.0,20.0,-12.0,504.0,-276.0,829.0
139.0,-65.0,203.0,43.0,23.0,-13.0,509.0,-276.0,828.0
138.0,-63.0,199.0,43.0,24.0,-15.0,507.0,-271.0,824.0
143.0,-63.0,202.0,43.0,25.0,-14.0,508.0,-271.0,834.0
134.0,-61.0,195.0,43.0,25.0,-12.0,506.0,-275.0,825.0
138.0,-64.0,196.0,46.0,24.0,-11.0,511.0,-277.0,832.0
141.0,-64.0,203.0,48.0,22.0,-10.0,507.0,-277.0,825.0
139.0,-64.0,200.0,51.0,22.0,-9.0,508.0,-275.0,831.0
138.0,-63.0,198.0,52.0,22.0,-9.0,506.0,-270.0,828.0
138.0,-60.0,201.0,50.0,20.0,-10.0,506.0,-279.0,833.0
135.0,-63.0,200.0,46.0,19.0,-11.0,505.0,-274.0,835.0
138.0,-65.0,196.0,41.0,19.0,-10.0,505.0,-278.0,837.0
138.0,-66.0,196.0,38.0,18.0,-10.0,506.0,-280.0,835.0
139.0,-66.0,204.0,36.0,16.0,-9.0,510.0,-286.0,833.0
137.0,-70.0,205.0,35.0,15.0,-10.0,514.0,-286.0,834.0
141.0,-67.0,200.0,37.0,14.0,-8.0,509.0,-288.0,824.0
142.0,-66.0,199.0,41.0,11.0,-9.0,508.0,-285.0,829.0
141.0,-66.0,200.0,46.0,7.0,-9.0,509.0,-286.0,834.0
139.0,-63.0,199.0,50.0,3.0,-10.0,508.0,-291.0,830.0
138.0,-66.0,200.0,53.0,-1.0,-10.0,502.0,-283.0,827.0
138.0,-65.0,198.0,54.0,-2.0,-8.0,497.0,-282.0,829.0
140.0,-66.0,199.0,56.0,-2.0,-10.0,505.0,-278.0,822.0
135.0,-64.0,198.0,54.0,-1.0,-9.0,499.0,-282.0,823.0
137.0,-65.0,203.0,52.0,1.0,-10.0,504.0,-275.0,828.0
137.0,-64.0,198.0,49.0,3.0,-10.0,502.0,-282.0,834.0
142.0,-65.0,195.0,47.0,5.0,-10.0,506.0,-281.0,831.0
139.0,-65.0,201.0,44.0,9.0,-11.0,501.0,-281.0,830.0
140.0,-63.0,199.0,43.0,12.0,-12.0,507.0,-276.0,828.0
140.0,-64.0,200.0,43.0,15.0,-11.0,506.0,-273.0,833.0
138.0,-64.0,199.0,41.0,18.0,-13.0,507.0,-274.0,824.0
140.0,-61.0,201.0,40.0,19.0,-13.0,511.0,-268.0,835.0
141.0,-63.0,199.0,40.0,21.0,-13.0,508.0,-274.0,831.0
140.0,-61.0,202.0,40.0,20.0,-16.0,507.0,-269.0,830.0
139.0,-63.0,201.0,39.0,20.0,-16.0,506.0,-267.0,837.0
141.0,-66.0,202.0,39.0,18.0,-16.0,511.0,-283.0,835.0
139.0,-64.0,203.0,38.0,18.0,-16.0,504.0,-268.0,832.0
143.0,-63.0,197.0,37.0,19.0,-17.0,508.0,-274.0,828.0
142.0,-62.0,199.0,36.0,21.0,-17.0,512.0,-280.0,823.0
140.0,-62.0,200.0,33.0,21.0,-17.0,507.0,-273.0,833.0
140.0,-64.0,201.0,31.0,20.0,-13.0,508.0,-273.0,835.0
138.0,-64.0,200.0,29.0,19.0,-15.0,505.0,-273.0,824.0
141.0,-63.0,200.0,26.0,16.0,-15.0,508.0,-275.0,833.0
140.0,-64.0,201.0,24.0,16.0,-16.0,502.0,-283.0,831.0
140.0,-64.0,200.0,23.0,14.0,-13.0,506.0,-279.0,831.0
135.0,-61.0,201.0,21.0,15.0,-14.0,506.0,-277.0,829.0
136.0,-66.0,196.0,21.0,17.0,-14.0,502.0,-275.0,827.0
139.0,-61.0,197.0,20.0,17.0,-13.0,506.0,-276.0,831.0
135.0,-62.0,200.0,17.0,16.0,-14.0,500.0,-287.0,830.0
139.0,-66.0,197.0,17.0,17.0,-15.0,501.0,-276.0,822.0
140.0,-65.0,200.0,16.0,16.0,-16.0,506.0,-282.0,826.0
137.0,-65.0,199.0,17.0,15.0,-17.0,507.0,-278.0,827.0
137.0,-64.0,199.0,18.0,16.0,-19.0,509.0,-284.0,829.0
138.0,-65.0,198.0,19.0,17.0,-16.0,501.0,-282.0,831.0
138.0,-64.0,200.0,22.0,18.0,-18.0,509.0,-285.0,824.0
136.0,-67.0,201.0,23.0,20.0,-20.0,502.0,-287.0,833.0
136.0,-64.0,203.0,22.0,23.0,-21.0,501.0,-283.0,830.0
140.0,-65.0,197.0,23.0,25.0,-21.0,505.0,-278.0,829.0
142.0,-65.0,202.0,24.0,26.0,-18.0,507.0,-282.0,832.0
138.0,-66.0,197.0,25.0,24.0,-18.0,506.0,-280.0,832.0
139.0,-65.0,196.0,23.0,22.0,-19.0,506.0,-278.0,832.0
140.0,-64.0,197.0,23.0,21.0,-18.0,507.0,-283.0,832.0
139.0,-65.0,198.0,22.0,19.0,-18.0,507.0,-283.0,828.0
139.0,-65.0,203.0,21.0,19.0,-18.0,503.0,-285.0,824.0
140.0,-65.0,198.0,20.0,18.0,-18.0,507.0,-279.0,828.0
138.0,-64.0,202.0,17.0,17.0,-17.0,509.0,-285.0,830.0
140.0,-65.0,194.0,15.0,18.0,-19.0,504.0,-285.0,825.0
139.0,-68.0,197.0,11.0,20.0,-19.0,502.0,-281.0,819.0
139.0,-64.0,199.0,9.0,25.0,-20.0,500.0,-286.0,826.0
138.0,-68.0,195.0,9.0,26.0,-20.0,505.0,-287.0,822.0
137.0,-67.0,202.0,8.0,28.0,-20.0,503.0,-285.0,821.0
139.0,-65.0,198.0,8.0,30.0,-21.0,504.0,-283.0,828.0
141.0,-66.0,198.0,10.0,29.0,-21.0,501.0,-285.0,827.0
141.0,-64.0,196.0,12.0,28.0,-21.0,502.0,-291.0,829.0
140.0,-64.0,196.0,11.0,29.0,-21.0,505.0,-286.0,827.0
139.0,-65.0,197.0,13.0,29.0,-21.0,505.0,-287.0,829.0
137.0,-67.0,198.0,13.0,28.0,-22.0,504.0,-284.0,825.0
138.0,-64.0,197.0,12.0,27.0,-21.0,508.0,-289.0,830.0
141.0,-66.0,196.0,10.0,25.0,-23.0,502.0,-288.0,825.0
138.0,-67.0,196.0,7.0,23.0,-23.0,506.0,-287.0,826.0
141.0,-65.0,207.0,4.0,20.0,-24.0,507.0,-285.0,832.0
136.0,-73.0,191.0,2.0,17.0,-26.0,504.0,-284.0,833.0
140.0,-66.0,200.0,-2.0,16.0,-26.0,505.0,-283.0,830.0
138.0,-66.0,202.0,-5.0,12.0,-25.0,501.0,-291.0,830.0
137.0,-64.0,201.0,-7.0,10.0,-25.0,506.0,-289.0,827.0
139.0,-68.0,198.0,-7.0,9.0,-27.0,506.0,-282.0,821.0
139.0,-64.0,198.0,-9.0,9.0,-25.0,505.0,-286.0,827.0
138.0,-68.0,200.0,-9.0,10.0,-25.0,505.0,-285.0,831.0
139.0,-68.0,201.0,-7.0,11.0,-24.0,503.0,-289.0,828.0
139.0,-71.0,199.0,-5.0,9.0,-25.0,504.0,-289.0,830.0
136.0,-65.0,197.0,-1.0,8.0,-26.0,506.0,-291.0,832.0
137.0,-68.0,201.0,2.0,9.0,-28.0,506.0,-288.0,832.0
138.0,-67.0,204.0,4.0,10.0,-29.0,501.0,-289.0,826.0
140.0,-66.0,200.0,6.0,10.0,-29.0,506.0,-286.0,837.0
139.0,-67.0,202.0,7.0,10.0,-30.0,503.0,-290.0,834.0
138.0,-66.0,201.0,8.0,9.0,-32.0,504.0,-289.0,828.0
141.0,-68.0,201.0,7.0,11.0,-32.0,507.0,-286.0,833.0
137.0,-66.0,199.0,5.0,13.0,-32.0,501.0,-293.0,833.0
139.0,-68.0,202.0,4.0,15.0,-32.0,503.0,-290.0,832.0
139.0,-69.0,198.0,4.0,15.0,-32.0,501.0,-295.0,828.0
141.0,-66.0,195.0,4.0,16.0,-31.0,508.0,-292.0,822.0
140.0,-69.0,194.0,5.0,16.0,-30.0,511.0,-284.0,814.0
142.0,-66.0,198.0,7.0,14.0,-29.0,511.0,-287.0,816.0
136.0,-63.0,195.0,9.0,14.0,-29.0,510.0,-285.0,827.0
141.0,-65.0,196.0,11.0,14.0,-27.0,509.0,-284.0,817.0
141.0,-67.0,196.0,13.0,13.0,-28.0,509.0,-288.0,815.0
141.0,-65.0,196.0,14.0,14.0,-26.0,510.0,-285.0,814.0
137.0,-65.0,197.0,16.0,13.0,-26.0,509.0,-287.0,822.0
139.0,-66.0,198.0,18.0,13.0,-27.0,507.0,-285.0,826.0
144.0,-68.0,200.0,21.0,12.0,-27.0,509.0,-285.0,829.0
140.0,-65.0,198.0,21.0,14.0,-30.0,508.0,-285.0,822.0
140.0,-70.0,197.0,21.0,16.0,-28.0,508.0,-291.0,830.0
144.0,-66.0,200.0,19.0,20.0,-28.0,504.0,-288.0,825.0
141.0,-65.0,197.0,17.0,19.0,-28.0,509.0,-288.0,826.0
140.0,-68.0,199.0,15.0,21.0,-29.0,506.0,-293.0,823.0
139.0,-68.0,201.0,13.0,21.0,-27.0,505.0,-293.0,829.0
141.0,-69.0,200.0,11.0,23.0,-26.0,498.0,-288.0,828.0
138.0,-70.0,198.0,12.0,23.0,-27.0,508.0,-293.0,822.0
136.0,-69.0,195.0,11.0,22.0,-25.0,509.0,-289.0,826.0
138.0,-66.0,197.0,13.0,22.0,-25.0,505.0,-291.0,823.0
139.0,-66.0,200.0,12.0,21.0,-25.0,504.0,-287.0,825.0
138.0,-65.0,195.0,12.0,22.0,-24.0,509.0,-288.0,813.0
139.0,-67.0,199.0,12.0,21.0,-23.0,503.0,-291.0,813.0
142.0,-70.0,199.0,11.0,19.0,-23.0,504.0,-287.0,821.0
135.0,-68.0,200.0,11.0,17.0,-22.0,507.0,-289.0,821.0
142.0,-64.0,197.0,11.0,16.0,-24.0,509.0,-286.0,821.0
140.0,-68.0,196.0,11.0,14.0,-25.0,512.0,-289.0,816.0
141.0,-67.0,193.0,9.0,13.0,-25.0,510.0,-291.0,819.0
140.0,-66.0,197.0,7.0,13.0,-25.0,505.0,-289.0,827.0
140.0,-65.0,200.0,3.0,15.0,-26.0,509.0,-291.0,818.0
139.0,-65.0,195.0,1.0,15.0,-26.0,505.0,-292.0,821.0
139.0,-67.0,198.0,-3.0,16.0,-27.0,505.0,-290.0,820.0
139.0,-67.0,199.0,-4.0,14.0,-27.0,507.0,-292.0,824.0
140.0,-71.0,198.0,-6.0,12.0,-28.0,505.0,-295.0,825.0
138.0,-68.0,199.0,-6.0,11.0,-27.0,506.0,-294.0,821.0
135.0,-70.0,195.0,-4.0,11.0,-28.0,506.0,-298.0,818.0
134.0,-67.0,208.0,-3.0,12.0,-29.0,499.0,-292.0,830.0
134.0,-68.0,191.0,-2.0,15.0,-27.0,505.0,-296.0,824.0
135.0,-62.0,206.0,-1.0,15.0,-27.0,502.0,-295.0,830.0
138.0,-65.0,192.0,-3.0,13.0,-29.0,499.0,-296.0,824.0
140.0,-68.0,196.0,-5.0,10.0,-31.0,504.0,-300.0,822.0
123.0,-68.0,201.0,-12.0,-1.0,-34.0,474.0,-292.0,848.0
136.0,-63.0,190.0,-57.0,-54.0,-44.0,487.0,-279.0,827.0
152.0,-63.0,200.0,-89.0,-58.0,-51.0,530.0,-291.0,811.0
154.0,-78.0,195.0,-76.0,-11.0,-43.0,522.0,-307.0,811.0
147.0,-76.0,192.0,-49.0,18.0,-36.0,515.0,-322.0,822.0
137.0,-68.0,194.0,-21.0,25.0,-33.0,509.0,-306.0,817.0
139.0,-70.0,205.0,3.0,25.0,-31.0,509.0,-311.0,823.0
134.0,-76.0,195.0,17.0,21.0,-28.0,505.0,-310.0,817.0
143.0,-70.0,199.0,25.0,19.0,-28.0,513.0,-306.0,815.0
132.0,-77.0,198.0,29.0,19.0,-27.0,507.0,-302.0,813.0
139.0,-65.0,191.0,29.0,18.0,-25.0,509.0,-305.0,816.0
136.0,-73.0,198.0,32.0,19.0,-25.0,508.0,-302.0,810.0
153.0,-67.0,194.0,33.0,20.0,-23.0,509.0,-299.0,818.0
141.0,-67.0,187.0,30.0,22.0,-23.0,510.0,-291.0,812.0
136.0,-56.0,196.0,26.0,25.0,-22.0,506.0,-290.0,819.0
145.0,-73.0,206.0,21.0,26.0,-23.0,507.0,-296.0,816.0
137.0,-70.0,196.0,15.0,27.0,-22.0,506.0,-289.0,822.0
144.0,-78.0,202.0,9.0,28.0,-21.0,509.0,-289.0,821.0
142.0,-66.0,200.0,2.0,28.0,-21.0,507.0,-282.0,829.0
142.0,-75.0,195.0,-5.0,28.0,-22.0,505.0,-296.0,821.0
142.0,-71.0,194.0,-12.0,23.0,-21.0,510.0,-290.0,828.0
142.0,-71.0,200.0,-16.0,20.0,-22.0,510.0,-286.0,820.0
141.0,-67.0,199.0,-19.0,18.0,-21.0,508.0,-291.0,820.0
137.0,-67.0,204.0,-19.0,19.0,-20.0,511.0,-300.0,819.0
138.0,-67.0,200.0,-19.0,18.0,-21.0,508.0,-300.0,820.0
141.0,-67.0,200.0,-18.0,17.0,-22.0,509.0,-302.0,821.0
138.0,-69.0,199.0,-15.0,16.0,-20.0,509.0,-293.0,822.0
138.0,-68.0,199.0,-14.0,15.0,-21.0,513.0,-300.0,822.0
143.0,-73.0,192.0,-8.0,15.0,-19.0,508.0,-301.0,814.0
138.0,-73.0,196.0,-7.0,14.0,-18.0,509.0,-304.0,817.0
141.0,-75.0,195.0,-2.0,10.0,-17.0,510.0,-305.0,820.0
140.0,-68.0,194.0,1.0,8.0,-18.0,509.0,-304.0,826.0
137.0,-70.0,199.0,5.0,7.0,-17.0,508.0,-308.0,811.0
140.0,-65.0,200.0,8.0,7.0,-17.0,503.0,-307.0,818.0
139.0,-70.0,195.0,10.0,6.0,-17.0,501.0,-305.0,825.0
140.0,-72.0,196.0,12.0,7.0,-18.0,500.0,-306.0,822.0
137.0,-71.0,195.0,11.0,8.0,-19.0,501.0,-303.0,827.0
138.0,-72.0,197.0,9.0,8.0,-18.0,504.0,-309.0,824.0
141.0,-75.0,210.0,7.0,8.0,-19.0,509.0,-305.0,814.0
139.0,-67.0,199.0,4.0,10.0,-21.0,507.0,-307.0,821.0
138.0,-70.0,198.0,0.0,8.0,-23.0,504.0,-309.0,820.0
136.0,-69.0,199.0,-7.0,-1.0,-21.0,494.0,-297.0,815.0
139.0,-69.0,193.0,-20.0,-15.0,-21.0,511.0,-301.0,811.0
137.0,-72.0,194.0,-25.0,-16.0,-20.0,513.0,-305.0,811.0
145.0,-74.0,190.0,-26.0,-17.0,-17.0,519.0,-320.0,801.0
141.0,-72.0,196.0,-14.0,-9.0,-14.0,523.0,-321.0,809.0
139.0,-76.0,195.0,4.0,-4.0,-12.0,509.0,-318.0,806.0
138.0,-77.0,195.0,20.0,-4.0,-10.0,511.0,-319.0,803.0
142.0,-77.0,197.0,33.0,-3.0,-9.0,506.0,-315.0,807.0
132.0,-68.0,194.0,41.0,-2.0,-10.0,507.0,-314.0,808.0
140.0,-74.0,193.0,46.0,-1.0,-9.0,512.0,-310.0,808.0
140.0,-70.0,198.0,47.0,2.0,-8.0,512.0,-312.0,815.0
139.0,-70.0,194.0,47.0,4.0,-9.0,508.0,-310.0,812.0
140.0,-71.0,196.0,44.0,4.0,-11.0,512.0,-306.0,821.0
141.0,-70.0,195.0,42.0,4.0,-14.0,510.0,-309.0,820.0
141.0,-70.0,199.0,40.0,3.0,-15.0,512.0,-310.0,822.0
139.0,-70.0,196.0,37.0,3.0,-17.0,511.0,-306.0,813.0
138.0,-66.0,196.0,32.0,0.0,-19.0,505.0,-302.0,820.0
141.0,-69.0,197.0,23.0,-6.0,-19.0,516.0,-299.0,811.0
141.0,-71.0,197.0,18.0,0.0,-20.0,510.0,-302.0,810.0
140.0,-73.0,197.0,16.0,3.0,-20.0,511.0,-308.0,810.0
139.0,-69.0,198.0,18.0,5.0,-21.0,509.0,-313.0,809.0
143.0,-71.0,192.0,22.0,7.0,-22.0,513.0,-310.0,811.0
141.0,-70.0,195.0,30.0,14.0,-21.0,506.0,-314.0,810.0
139.0,-73.0,193.0,38.0,17.0,-19.0,505.0,-307.0,807.0
141.0,-73.0,195.0,41.0,16.0,-19.0,509.0,-312.0,807.0
139.0,-66.0,195.0,41.0,13.0,-20.0,510.0,-304.0,809.0
139.0,-73.0,197.0,36.0,8.0,-18.0,508.0,-298.0,807.0
